Time(s),ECG(mV)
0.0,0.085
0.004,0.08
0.008,0.125
0.012,0.17
0.016,0.23
0.02,0.34
0.024,0.485
0.028,0.7
0.032,0.855
0.036,0.92
0.04,0.705
0.044,0.4
0.048,0.03
0.052,-0.245
0.056,-0.36
0.06,-0.355
0.064,-0.24
0.068,-0.125
0.072,-0.065
0.076,-0.03
0.08,0.015
0.084,0.055
0.088,0.08
0.092,0.085
0.096,0.075
0.1,0.07
0.104,0.08
0.108,0.08
0.112,0.09
0.116,0.095
0.12,0.095
0.124,0.09
0.128,0.095
0.132,0.095
0.136,0.11
0.14,0.1
0.144,0.1
0.148,0.115
0.152,0.115
0.156,0.1
0.16,0.115
0.164,0.11
0.168,0.12
0.172,0.115
0.176,0.11
0.18,0.125
0.184,0.125
0.188,0.14
0.192,0.135
0.196,0.135
0.2,0.155
0.204,0.14
0.208,0.155
0.212,0.16
0.216,0.16
0.22,0.175
0.224,0.18
0.228,0.185
0.232,0.18
0.236,0.195
0.24,0.185
0.244,0.215
0.248,0.21
0.252,0.225
0.256,0.22
0.26,0.22
0.264,0.22
0.268,0.24
0.272,0.235
0.276,0.245
0.28,0.24
0.284,0.255
0.288,0.24
0.292,0.24
0.296,0.235
0.3,0.22
0.304,0.21
0.308,0.21
0.312,0.2
0.316,0.205
0.32,0.185
0.324,0.165
0.328,0.165
0.332,0.14
0.336,0.12
0.34,0.115
0.344,0.09
0.348,0.085
0.352,0.06
0.356,0.05
0.36,0.03
0.364,0.03
0.368,0.04
0.372,0.015
0.376,0.005
0.38,0.015
0.384,-0.0
0.388,0.005
0.392,-0.0
0.396,-0.0
0.4,-0.0
0.404,-0.0
0.408,-0.005
0.412,-0.0
0.416,0.02
0.42,-0.0
0.424,-0.0
0.428,-0.0
0.432,-0.0
0.436,0.005
0.44,0.02
0.444,0.005
0.448,0.005
0.452,0.02
0.456,0.015
0.46,0.01
0.464,0.02
0.468,0.025
0.472,0.02
0.476,0.025
0.48,0.025
0.484,0.04
0.488,0.045
0.492,0.03
0.496,0.035
0.5,0.04
0.504,0.04
0.508,0.05
0.512,0.055
0.516,0.06
0.52,0.045
0.524,0.05
0.528,0.055
0.532,0.045
0.536,0.055
0.54,0.06
0.544,0.05
0.548,0.055
0.552,0.045
0.556,0.06
0.56,0.045
0.564,0.055
0.568,0.05
0.572,0.065
0.576,0.06
0.58,0.06
0.584,0.08
0.588,0.06
0.592,0.06
0.596,0.07
0.6,0.07
0.604,0.07
0.608,0.06
0.612,0.075
0.616,0.08
0.62,0.08
0.624,0.075
0.628,0.08
0.632,0.08
0.636,0.07
0.64,0.07
0.644,0.06
0.648,0.08
0.652,0.08
0.656,0.075
0.66,0.08
0.664,0.08
0.668,0.06
0.672,0.065
0.676,0.08
0.68,0.06
0.684,0.07
0.688,0.06
0.692,0.085
0.696,0.07
0.7,0.085
0.704,0.065
0.708,0.095
0.712,0.075
0.716,0.1
0.72,0.08
0.724,0.075
0.728,0.075
0.732,0.085
0.736,0.1
0.74,0.095
0.744,0.085
0.748,0.11
0.752,0.09
0.756,0.095
0.76,0.1
0.764,0.09
0.768,0.105
0.772,0.115
0.776,0.14
0.78,0.125
0.784,0.125
0.788,0.12
0.792,0.115
0.796,0.115
0.8,0.125
0.804,0.105
0.808,0.105
0.812,0.09
0.816,0.1
0.82,0.08
0.824,0.09
0.828,0.07
0.832,0.08
0.836,0.065
0.84,0.08
0.844,0.06
0.848,0.07
0.852,0.08
0.856,0.08
0.86,0.07
0.864,0.08
0.868,0.075
0.872,0.06
0.876,0.07
0.88,0.075
0.884,0.075
0.888,0.08
0.892,0.1
0.896,0.08
0.9,0.065
0.904,0.11
0.908,0.16
0.912,0.225
0.916,0.3
0.92,0.46
0.924,0.655
0.928,0.825
0.932,0.88
0.936,0.71
0.94,0.435
0.944,0.075
0.948,-0.23
0.952,-0.345
0.956,-0.34
0.96,-0.23
0.964,-0.12
0.968,-0.045
0.972,-0.015
0.976,0.025
0.98,0.04
0.984,0.06
0.988,0.075
0.992,0.08
0.996,0.08
1.0,0.08
1.004,0.075
1.008,0.085
1.012,0.085
1.016,0.1
1.02,0.08
1.024,0.08
1.028,0.095
1.032,0.095
1.036,0.1
1.04,0.1
1.044,0.08
1.048,0.1
1.052,0.105
1.056,0.1
1.06,0.12
1.064,0.105
1.068,0.125
1.072,0.13
1.076,0.12
1.08,0.125
1.084,0.12
1.088,0.13
1.092,0.14
1.096,0.14
1.1,0.145
1.104,0.145
1.108,0.165
1.112,0.16
1.116,0.15
1.12,0.16
1.124,0.175
1.128,0.175
1.132,0.19
1.136,0.19
1.14,0.195
1.144,0.2
1.148,0.205
1.152,0.2
1.156,0.21
1.16,0.2
1.164,0.225
1.168,0.22
1.172,0.235
1.176,0.24
1.18,0.235
1.184,0.235
1.188,0.225
1.192,0.22
1.196,0.205
1.2,0.22
1.204,0.215
1.208,0.205
1.212,0.2
1.216,0.175
1.22,0.155
1.224,0.16
1.228,0.12
1.232,0.11
1.236,0.09
1.24,0.085
1.244,0.06
1.248,0.04
1.252,0.035
1.256,0.02
1.26,0.025
1.264,0.015
1.268,-0.0
1.272,-0.0
1.276,-0.0
1.28,-0.005
1.284,-0.01
1.288,-0.005
1.292,0.005
1.296,-0.0
1.3,-0.02
1.304,-0.005
1.308,-0.0
1.312,0.015
1.316,-0.0
1.32,-0.005
1.324,0.005
1.328,0.015
1.332,-0.0
1.336,-0.0
1.34,-0.0
1.344,0.005
1.348,0.02
1.352,0.015
1.356,0.005
1.36,0.015
1.364,0.02
1.368,0.02
1.372,0.02
1.376,0.03
1.38,0.025
1.384,0.02
1.388,0.02
1.392,0.02
1.396,0.02
1.4,0.025
1.404,0.03
1.408,0.04
1.412,0.02
1.416,0.04
1.42,0.045
1.424,0.035
1.428,0.04
1.432,0.05
1.436,0.045
1.44,0.045
1.444,0.05
1.448,0.04
1.452,0.045
1.456,0.04
1.46,0.03
1.464,0.04
1.468,0.05
1.472,0.045
1.476,0.04
1.48,0.065
1.484,0.06
1.488,0.04
1.492,0.065
1.496,0.05
1.5,0.065
1.504,0.06
1.508,0.05
1.512,0.07
1.516,0.045
1.52,0.05
1.524,0.06
1.528,0.065
1.532,0.08
1.536,0.055
1.54,0.06
1.544,0.06
1.548,0.08
1.552,0.08
1.556,0.065
1.56,0.075
1.564,0.07
1.568,0.07
1.572,0.065
1.576,0.065
1.58,0.075
1.584,0.065
1.588,0.07
1.592,0.065
1.596,0.075
1.6,0.07
1.604,0.08
1.608,0.075
1.612,0.08
1.616,0.07
1.62,0.095
1.624,0.075
1.628,0.095
1.632,0.09
1.636,0.11
1.64,0.095
1.644,0.11
1.648,0.1
1.652,0.105
1.656,0.125
1.66,0.125
1.664,0.135
1.668,0.135
1.672,0.14
1.676,0.125
1.68,0.12
1.684,0.11
1.688,0.11
1.692,0.09
1.696,0.1
1.7,0.085
1.704,0.085
1.708,0.07
1.712,0.08
1.716,0.06
1.72,0.075
1.724,0.055
1.728,0.055
1.732,0.06
1.736,0.06
1.74,0.065
1.744,0.07
1.748,0.08
1.752,0.06
1.756,0.08
1.76,0.06
1.764,0.085
1.768,0.07
1.772,0.09
1.776,0.07
1.78,0.08
1.784,0.075
1.788,0.08
1.792,0.13
1.796,0.16
1.8,0.225
1.804,0.36
1.808,0.545
1.812,0.76
1.816,0.93
1.82,0.945
1.824,0.705
1.828,0.345
1.832,-0.06
1.836,-0.3
1.84,-0.4
1.844,-0.345
1.848,-0.215
1.852,-0.115
1.856,-0.06
1.86,-0.01
1.864,0.02
1.868,0.07
1.872,0.06
1.876,0.075
1.88,0.06
1.884,0.075
1.888,0.07
1.892,0.085
1.896,0.095
1.9,0.085
1.904,0.08
1.908,0.09
1.912,0.095
1.916,0.09
1.92,0.1
1.924,0.1
1.928,0.115
1.932,0.1
1.936,0.115
1.94,0.115
1.944,0.105
1.948,0.12
1.952,0.12
1.956,0.125
1.96,0.12
1.964,0.12
1.968,0.14
1.972,0.12
1.976,0.125
1.98,0.15
1.984,0.135
1.988,0.14
1.992,0.16
1.996,0.15
2.0,0.15
2.004,0.18
2.008,0.165
2.012,0.165
2.016,0.175
2.02,0.19
2.024,0.185
2.028,0.2
2.032,0.21
2.036,0.21
2.04,0.22
2.044,0.215
2.048,0.225
2.052,0.24
2.056,0.235
2.06,0.22
2.064,0.24
2.068,0.225
2.072,0.22
2.076,0.24
2.08,0.24
2.084,0.235
2.088,0.24
2.092,0.215
2.096,0.21
2.1,0.205
2.104,0.195
2.108,0.18
2.112,0.155
2.116,0.145
2.12,0.145
2.124,0.1
2.128,0.095
2.132,0.07
2.136,0.065
2.14,0.04
2.144,0.03
2.148,0.04
2.152,0.03
2.156,0.015
2.16,0.015
2.164,0.01
2.168,-0.0
2.172,-0.0
2.176,0.005
2.18,-0.01
2.184,-0.0
2.188,0.005
2.192,-0.0
2.196,0.005
2.2,0.015
2.204,-0.0
2.208,0.02
2.212,0.005
2.216,0.01
2.22,0.005
2.224,0.01
2.228,0.02
2.232,0.02
2.236,0.02
2.24,0.015
2.244,0.02
2.248,0.015
2.252,0.02
2.256,0.04
2.26,0.025
2.264,0.02
2.268,0.035
2.272,0.03
2.276,0.025
2.28,0.02
2.284,0.035
2.288,0.02
2.292,0.03
2.296,0.03
2.3,0.04
2.304,0.025
2.308,0.04
2.312,0.04
2.316,0.055
2.32,0.055
2.324,0.04
2.328,0.06
2.332,0.045
2.336,0.04
2.34,0.055
2.344,0.06
2.348,0.04
2.352,0.055
2.356,0.045
2.36,0.055
2.364,0.06
2.368,0.04
2.372,0.06
2.376,0.06
2.38,0.07
2.384,0.05
2.388,0.06
2.392,0.06
2.396,0.065
2.4,0.06
2.404,0.06
2.408,0.08
2.412,0.05
2.416,0.08
2.42,0.065
2.424,0.09
2.428,0.08
2.432,0.08
2.436,0.075
2.44,0.075
2.444,0.07
2.448,0.07
2.452,0.08
2.456,0.075
2.46,0.08
2.464,0.07
2.468,0.07
2.472,0.08
2.476,0.075
2.48,0.075
2.484,0.075
2.488,0.08
2.492,0.09
2.496,0.08
2.5,0.08
2.504,0.08
2.508,0.085
2.512,0.095
2.516,0.08
2.52,0.09
2.524,0.07
2.528,0.1
2.532,0.08
2.536,0.105
2.54,0.1
2.544,0.1
2.548,0.11
2.552,0.11
2.556,0.12
2.56,0.12
2.564,0.13
2.568,0.125
2.572,0.12
2.576,0.14
2.58,0.14
2.584,0.12
2.588,0.12
2.592,0.12
2.596,0.11
2.6,0.1
2.604,0.1
2.608,0.08
2.612,0.08
2.616,0.095
2.62,0.08
2.624,0.08
2.628,0.06
2.632,0.06
2.636,0.065
2.64,0.07
2.644,0.055
2.648,0.065
2.652,0.08
2.656,0.07
2.66,0.08
2.664,0.075
2.668,0.075
2.672,0.065
2.676,0.075
2.68,0.08
2.684,0.08
2.688,0.075
2.692,0.09
2.696,0.12
2.7,0.165
2.704,0.24
2.708,0.375
2.712,0.545
2.716,0.775
2.72,0.925
2.724,0.96
2.728,0.7
2.732,0.34
2.736,-0.06
2.74,-0.3
2.744,-0.415
2.748,-0.355
2.752,-0.24
2.756,-0.125
2.76,-0.085
2.764,-0.02
2.768,0.01
2.772,0.05
2.776,0.075
2.78,0.06
2.784,0.075
2.788,0.07
2.792,0.07
2.796,0.08
2.8,0.08
2.804,0.085
2.808,0.1
2.812,0.095
2.816,0.1
2.82,0.095
2.824,0.105
2.828,0.1
2.832,0.11
2.836,0.1
2.84,0.1
2.844,0.1
2.848,0.12
2.852,0.12
2.856,0.105
2.86,0.125
2.864,0.135
2.868,0.125
2.872,0.12
2.876,0.125
2.88,0.14
2.884,0.13
2.888,0.14
2.892,0.145
2.896,0.16
2.9,0.14
2.904,0.16
2.908,0.175
2.912,0.18
2.916,0.175
2.92,0.19
2.924,0.195
2.928,0.2
2.932,0.205
2.936,0.2
2.94,0.215
2.944,0.24
2.948,0.22
2.952,0.23
2.956,0.24
2.96,0.23
2.964,0.235
2.968,0.24
2.972,0.235
2.976,0.225
2.98,0.225
2.984,0.23
2.988,0.225
2.992,0.235
2.996,0.215
3.0,0.205
3.004,0.2
3.008,0.195
3.012,0.18
3.016,0.155
3.02,0.14
3.024,0.125
3.028,0.115
3.032,0.095
3.036,0.085
3.04,0.06
3.044,0.045
3.048,0.04
3.052,0.04
3.056,0.02
3.06,0.015
3.064,0.01
3.068,0.005
3.072,-0.0
3.076,-0.0
3.08,-0.0
3.084,-0.0
3.088,-0.015
3.092,-0.0
3.096,-0.0
3.1,-0.0
3.104,-0.0
3.108,0.02
3.112,0.01
3.116,0.01
3.12,0.02
3.124,0.005
3.128,0.015
3.132,0.02
3.136,0.03
3.14,0.015
3.144,0.005
3.148,0.02
3.152,0.02
3.156,0.02
3.16,0.03
3.164,0.025
3.168,0.02
3.172,0.04
3.176,0.035
3.18,0.025
3.184,0.04
3.188,0.035
3.192,0.04
3.196,0.03
3.2,0.035
3.204,0.04
3.208,0.03
3.212,0.04
3.216,0.03
3.22,0.04
3.224,0.04
3.228,0.04
3.232,0.045
3.236,0.05
3.24,0.04
3.244,0.05
3.248,0.05
3.252,0.04
3.256,0.04
3.26,0.05
3.264,0.05
3.268,0.05
3.272,0.06
3.276,0.05
3.28,0.06
3.284,0.06
3.288,0.055
3.292,0.065
3.296,0.06
3.3,0.06
3.304,0.065
3.308,0.06
3.312,0.065
3.316,0.06
3.32,0.07
3.324,0.065
3.328,0.065
3.332,0.08
3.336,0.065
3.34,0.07
3.344,0.075
3.348,0.08
3.352,0.07
3.356,0.08
3.36,0.08
3.364,0.075
3.368,0.07
3.372,0.08
3.376,0.08
3.38,0.085
3.384,0.075
3.388,0.07
3.392,0.08
3.396,0.065
3.4,0.08
3.404,0.08
3.408,0.09
3.412,0.08
3.416,0.085
3.42,0.08
3.424,0.08
3.428,0.08
3.432,0.085
3.436,0.095
3.44,0.095
3.444,0.095
3.448,0.1
3.452,0.105
3.456,0.105
3.46,0.095
3.464,0.105
3.468,0.115
3.472,0.115
3.476,0.135
3.48,0.14
3.484,0.14
3.488,0.155
3.492,0.135
3.496,0.135
3.5,0.125
3.504,0.12
3.508,0.12
3.512,0.1
3.516,0.1
3.52,0.08
3.524,0.09
3.528,0.1
3.532,0.08
3.536,0.07
3.54,0.07
3.544,0.06
3.548,0.075
3.552,0.075
3.556,0.07
3.56,0.07
3.564,0.09
3.568,0.075
3.572,0.075
3.576,0.07
3.58,0.08
3.584,0.075
3.588,0.065
3.592,0.08
3.596,0.08
3.6,0.08
3.604,0.08
3.608,0.13
3.612,0.16
3.616,0.215
3.62,0.325
3.624,0.495
3.628,0.7
3.632,0.875
3.636,0.96
3.64,0.795
3.644,0.5
3.648,0.115
3.652,-0.24
3.656,-0.375
3.66,-0.38
3.664,-0.255
3.668,-0.155
3.672,-0.095
3.676,-0.035
3.68,-0.0
3.684,0.04
3.688,0.055
3.692,0.065
3.696,0.075
3.7,0.06
3.704,0.07
3.708,0.075
3.712,0.085
3.716,0.09
3.72,0.105
3.724,0.1
3.728,0.085
3.732,0.11
3.736,0.1
3.74,0.105
3.744,0.105
3.748,0.095
3.752,0.105
3.756,0.125
3.76,0.11
3.764,0.12
3.768,0.12
3.772,0.11
3.776,0.125
3.78,0.12
3.784,0.125
3.788,0.14
3.792,0.125
3.796,0.14
3.8,0.135
3.804,0.13
3.808,0.15
3.812,0.16
3.816,0.15
3.82,0.16
3.824,0.175
3.828,0.17
3.832,0.175
3.836,0.18
3.84,0.18
3.844,0.21
3.848,0.22
3.852,0.205
3.856,0.215
3.86,0.22
3.864,0.23
3.868,0.25
3.872,0.24
3.876,0.24
3.88,0.225
3.884,0.23
3.888,0.23
3.892,0.23
3.896,0.22
3.9,0.23
3.904,0.24
3.908,0.22
3.912,0.205
3.916,0.2
3.92,0.195
3.924,0.18
3.928,0.165
3.932,0.15
3.936,0.13
3.94,0.115
3.944,0.09
3.948,0.085
3.952,0.075
3.956,0.055
3.96,0.055
3.964,0.04
3.968,0.02
3.972,0.03
3.976,0.02
3.98,0.01
3.984,0.015
3.988,0.01
3.992,-0.0
3.996,-0.0
4.0,-0.0
4.004,-0.0
4.008,0.01
4.012,0.01
4.016,0.005
4.02,-0.0
4.024,0.005
4.028,0.005
4.032,0.005
4.036,0.01
4.04,0.02
4.044,-0.0
4.048,0.005
4.052,0.01
4.056,0.035
4.06,0.02
4.064,0.015
4.068,0.03
4.072,0.03
4.076,0.025
4.08,0.045
4.084,0.02
4.088,0.03
4.092,0.04
4.096,0.025
4.1,0.04
4.104,0.025
4.108,0.035
4.112,0.05
4.116,0.035
4.12,0.045
4.124,0.04
4.128,0.03
4.132,0.045
4.136,0.04
4.14,0.04
4.144,0.04
4.148,0.04
4.152,0.045
4.156,0.035
4.16,0.03
4.164,0.045
4.168,0.045
4.172,0.05
4.176,0.045
4.18,0.04
4.184,0.05
4.188,0.05
4.192,0.06
4.196,0.045
4.2,0.07
4.204,0.06
4.208,0.055
4.212,0.06
4.216,0.065
4.22,0.065
4.224,0.06
4.228,0.055
4.232,0.07
4.236,0.06
4.24,0.075
4.244,0.08
4.248,0.085
4.252,0.08
4.256,0.065
4.26,0.07
4.264,0.075
4.268,0.07
4.272,0.07
4.276,0.08
4.28,0.07
4.284,0.07
4.288,0.075
4.292,0.085
4.296,0.08
4.3,0.075
4.304,0.08
4.308,0.08
4.312,0.08
4.316,0.08
4.32,0.085
4.324,0.08
4.328,0.08
4.332,0.08
4.336,0.08
4.34,0.08
4.344,0.095
4.348,0.115
4.352,0.105
4.356,0.11
4.36,0.11
4.364,0.11
4.368,0.115
4.372,0.13
4.376,0.125
4.38,0.155
4.384,0.15
4.388,0.135
4.392,0.13
4.396,0.13
4.4,0.13
4.404,0.12
4.408,0.115
4.412,0.095
4.416,0.115
4.42,0.1
4.424,0.095
4.428,0.085
4.432,0.085
4.436,0.08
4.44,0.065
4.444,0.06
4.448,0.07
4.452,0.06
4.456,0.07
4.46,0.065
4.464,0.08
4.468,0.065
4.472,0.08
4.476,0.075
4.48,0.08
4.484,0.07
4.488,0.08
4.492,0.07
4.496,0.065
4.5,0.08
4.504,0.075
4.508,0.095
4.512,0.12
4.516,0.15
4.52,0.235
4.524,0.35
4.528,0.52
4.532,0.725
4.536,0.905
4.54,0.94
4.544,0.7
4.548,0.38
4.552,-0.0
4.556,-0.28
4.56,-0.4
4.564,-0.355
4.568,-0.225
4.572,-0.135
4.576,-0.085
4.58,-0.035
4.584,-0.0
4.588,0.055
4.592,0.08
4.596,0.065
4.6,0.07
4.604,0.06
4.608,0.08
4.612,0.07
4.616,0.095
4.62,0.08
4.624,0.105
4.628,0.085
4.632,0.1
4.636,0.095
4.64,0.1
4.644,0.1
4.648,0.1
4.652,0.11
4.656,0.11
4.66,0.115
4.664,0.1
4.668,0.12
4.672,0.115
4.676,0.115
4.68,0.13
4.684,0.13
4.688,0.13
4.692,0.125
4.696,0.14
4.7,0.14
4.704,0.145
4.708,0.125
4.712,0.145
4.716,0.16
4.72,0.145
4.724,0.15
4.728,0.18
4.732,0.185
4.736,0.18
4.74,0.19
4.744,0.2
4.748,0.21
4.752,0.205
4.756,0.21
4.76,0.22
4.764,0.215
4.768,0.225
4.772,0.23
4.776,0.24
4.78,0.25
4.784,0.24
4.788,0.23
4.792,0.24
4.796,0.22
4.8,0.24
4.804,0.215
4.808,0.225
4.812,0.22
4.816,0.215
4.82,0.2
4.824,0.19
4.828,0.17
4.832,0.165
4.836,0.15
4.84,0.13
4.844,0.115
4.848,0.095
4.852,0.09
4.856,0.07
4.86,0.06
4.864,0.05
4.868,0.03
4.872,0.035
4.876,0.03
4.88,0.02
4.884,0.015
4.888,0.015
4.892,-0.0
4.896,-0.0
4.9,0.005
4.904,-0.0
4.908,-0.0
4.912,0.01
4.916,0.015
4.92,-0.0
4.924,0.01
4.928,0.02
4.932,0.02
4.936,0.005
4.94,0.01
4.944,0.02
4.948,0.02
4.952,0.02
4.956,0.02
4.96,0.015
4.964,0.02
4.968,0.03
4.972,0.025
4.976,0.02
4.98,0.04
4.984,0.025
4.988,0.04
4.992,0.035
4.996,0.025
5.0,0.04
5.004,0.03
5.008,0.04
5.012,0.03
5.016,0.025
5.02,0.03
5.024,0.045
5.028,0.03
5.032,0.05
5.036,0.05
5.04,0.045
5.044,0.035
5.048,0.04
5.052,0.05
5.056,0.055
5.06,0.035
5.064,0.04
5.068,0.04
5.072,0.06
5.076,0.05
5.08,0.06
5.084,0.055
5.088,0.055
5.092,0.065
5.096,0.065
5.1,0.06
5.104,0.06
5.108,0.05
5.112,0.05
5.116,0.06
5.12,0.065
5.124,0.065
5.128,0.06
5.132,0.06
5.136,0.075
5.14,0.065
5.144,0.07
5.148,0.085
5.152,0.08
5.156,0.08
5.16,0.08
5.164,0.08
5.168,0.08
5.172,0.08
5.176,0.08
5.18,0.07
5.184,0.09
5.188,0.08
5.192,0.08
5.196,0.08
5.2,0.085
5.204,0.085
5.208,0.08
5.212,0.07
5.216,0.08
5.22,0.08
5.224,0.095
5.228,0.075
5.232,0.1
5.236,0.08
5.24,0.11
5.244,0.1
5.248,0.105
5.252,0.1
5.256,0.095
5.26,0.105
5.264,0.11
5.268,0.125
5.272,0.125
5.276,0.14
5.28,0.14
5.284,0.135
5.288,0.135
5.292,0.13
5.296,0.115
5.3,0.12
5.304,0.11
5.308,0.115
5.312,0.11
5.316,0.09
5.32,0.085
5.324,0.08
5.328,0.08
5.332,0.06
5.336,0.07
5.34,0.045
5.344,0.065
5.348,0.075
5.352,0.065
5.356,0.09
5.36,0.055
5.364,0.08
5.368,0.06
5.372,0.08
5.376,0.07
5.38,0.09
5.384,0.065
5.388,0.08
5.392,0.08
5.396,0.09
5.4,0.08
5.404,0.125
5.408,0.145
5.412,0.195
5.416,0.285
5.42,0.435
5.424,0.635
5.428,0.825
5.432,0.89
5.436,0.76
5.44,0.51
5.444,0.145
5.448,-0.205
5.452,-0.33
5.456,-0.345
5.46,-0.26
5.464,-0.145
5.468,-0.08
5.472,-0.025
5.476,0.015
5.48,0.05
5.484,0.06
5.488,0.08
5.492,0.08
5.496,0.095
5.5,0.09
5.504,0.08
5.508,0.085
5.512,0.085
5.516,0.08
5.52,0.095
5.524,0.09
5.528,0.1
5.532,0.1
5.536,0.12
5.54,0.115
5.544,0.115
5.548,0.1
5.552,0.12
5.556,0.095
5.56,0.12
5.564,0.115
5.568,0.105
5.572,0.12
5.576,0.115
5.58,0.12
5.584,0.11
5.588,0.125
5.592,0.15
5.596,0.125
5.6,0.125
5.604,0.155
5.608,0.14
5.612,0.15
5.616,0.16
5.62,0.16
5.624,0.155
5.628,0.175
5.632,0.2
5.636,0.18
5.64,0.2
5.644,0.19
5.648,0.215
5.652,0.21
5.656,0.22
5.66,0.225
5.664,0.21
5.668,0.205
5.672,0.23
5.676,0.21
5.68,0.24
5.684,0.215
5.688,0.225
5.692,0.215
5.696,0.195
5.7,0.215
5.704,0.2
5.708,0.2
5.712,0.195
5.716,0.18
5.72,0.155
5.724,0.16
5.728,0.13
5.732,0.125
5.736,0.1
5.74,0.09
5.744,0.09
5.748,0.08
5.752,0.045
5.756,0.055
5.76,0.035
5.764,0.025
5.768,0.015
5.772,0.02
5.776,-0.0
5.78,0.005
5.784,0.02
5.788,-0.0
5.792,0.015
5.796,0.02
5.8,0.01
5.804,0.02
5.808,0.005
5.812,0.02
5.816,-0.0
5.82,0.035
5.824,0.02
5.828,0.02
5.832,0.015
5.836,0.025
5.84,0.03
5.844,0.01
5.848,0.025
5.852,0.025
5.856,0.03
5.86,0.035
5.864,0.025
5.868,0.035
5.872,0.04
5.876,0.04
5.88,0.035
5.884,0.02
5.888,0.04
5.892,0.05
5.896,0.03
5.9,0.03
5.904,0.035
5.908,0.05
5.912,0.045
5.916,0.02
5.92,0.05
5.924,0.05
5.928,0.05
5.932,0.05
5.936,0.05
5.94,0.05
5.944,0.045
5.948,0.045
5.952,0.05
5.956,0.05
5.96,0.05
5.964,0.05
5.968,0.055
5.972,0.045
5.976,0.04
5.98,0.06
5.984,0.05
5.988,0.06
5.992,0.06
5.996,0.065
6.0,0.055
6.004,0.06
6.008,0.06
6.012,0.06
6.016,0.06
6.02,0.075
6.024,0.075
6.028,0.07
6.032,0.08
6.036,0.08
6.04,0.065
6.044,0.08
6.048,0.085
6.052,0.095
6.056,0.08
6.06,0.085
6.064,0.075
6.068,0.085
6.072,0.08
6.076,0.08
6.08,0.07
6.084,0.08
6.088,0.08
6.092,0.095
6.096,0.095
6.1,0.09
6.104,0.08
6.108,0.08
6.112,0.08
6.116,0.08
6.12,0.075
6.124,0.08
6.128,0.1
6.132,0.095
6.136,0.1
6.14,0.085
6.144,0.1
6.148,0.105
6.152,0.11
6.156,0.13
6.16,0.12
6.164,0.135
6.168,0.145
6.172,0.13
6.176,0.13
6.18,0.1
6.184,0.125
6.188,0.105
6.192,0.095
6.196,0.1
6.2,0.08
6.204,0.095
6.208,0.08
6.212,0.065
6.216,0.045
6.22,0.06
6.224,0.06
6.228,0.04
6.232,0.065
6.236,0.05
6.24,0.045
6.244,0.075
6.248,0.055
6.252,0.07
6.256,0.07
6.26,0.07
6.264,0.07
6.268,0.075
6.272,0.07
6.276,0.08
6.28,0.06
6.284,0.07
6.288,0.11
6.292,0.15
6.296,0.225
6.3,0.35
6.304,0.5
6.308,0.71
6.312,0.83
6.316,0.88
6.32,0.625
6.324,0.315
6.328,-0.06
6.332,-0.29
6.336,-0.38
6.34,-0.33
6.344,-0.21
6.348,-0.115
6.352,-0.05
6.356,-0.02
6.36,0.025
6.364,0.06
6.368,0.065
6.372,0.065
6.376,0.085
6.38,0.075
6.384,0.07
6.388,0.08
6.392,0.085
6.396,0.08
6.4,0.09
6.404,0.1
6.408,0.1
6.412,0.08
6.416,0.095
6.42,0.1
6.424,0.1
6.428,0.1
6.432,0.095
6.436,0.115
6.44,0.1
6.444,0.1
6.448,0.11
6.452,0.12
6.456,0.115
6.46,0.13
6.464,0.115
6.468,0.125
6.472,0.13
6.476,0.125
6.48,0.13
6.484,0.14
6.488,0.14
6.492,0.145
6.496,0.155
6.5,0.155
6.504,0.16
6.508,0.175
6.512,0.175
6.516,0.175
6.52,0.18
6.524,0.19
6.528,0.2
6.532,0.19
6.536,0.2
6.54,0.2
6.544,0.215
6.548,0.22
6.552,0.22
6.556,0.22
6.56,0.215
6.564,0.22
6.568,0.22
6.572,0.22
6.576,0.22
6.58,0.21
6.584,0.205
6.588,0.2
6.592,0.185
6.596,0.18
6.6,0.175
6.604,0.16
6.608,0.14
6.612,0.135
6.616,0.105
6.62,0.095
6.624,0.07
6.628,0.07
6.632,0.05
6.636,0.04
6.64,0.04
6.644,0.015
6.648,0.005
6.652,0.005
6.656,0.02
6.66,-0.0
6.664,0.01
6.668,0.005
6.672,0.015
6.676,0.005
6.68,-0.0
6.684,0.01
6.688,-0.0
6.692,0.01
6.696,-0.0
6.7,0.005
6.704,0.005
6.708,0.015
6.712,0.01
6.716,-0.0
6.72,0.015
6.724,0.015
6.728,0.015
6.732,0.005
6.736,0.02
6.74,0.03
6.744,0.015
6.748,0.025
6.752,0.04
6.756,0.025
6.76,0.03
6.764,0.025
6.768,0.04
6.772,0.05
6.776,0.04
6.78,0.035
6.784,0.04
6.788,0.04
6.792,0.045
6.796,0.04
6.8,0.035
6.804,0.045
6.808,0.045
6.812,0.045
6.816,0.04
6.82,0.04
6.824,0.04
6.828,0.04
6.832,0.04
6.836,0.04
6.84,0.04
6.844,0.045
6.848,0.035
6.852,0.05
6.856,0.04
6.86,0.04
6.864,0.045
6.868,0.05
6.872,0.055
6.876,0.06
6.88,0.055
6.884,0.045
6.888,0.055
6.892,0.05
6.896,0.055
6.9,0.075
6.904,0.055
6.908,0.065
6.912,0.06
6.916,0.075
6.92,0.07
6.924,0.055
6.928,0.08
6.932,0.07
6.936,0.075
6.94,0.06
6.944,0.08
6.948,0.065
6.952,0.08
6.956,0.085
6.96,0.08
6.964,0.08
6.968,0.08
6.972,0.08
6.976,0.09
6.98,0.075
6.984,0.09
6.988,0.085
6.992,0.08
6.996,0.085
7.0,0.08
7.004,0.09
7.008,0.08
7.012,0.09
7.016,0.085
7.02,0.1
7.024,0.09
7.028,0.1
7.032,0.085
7.036,0.11
7.04,0.12
7.044,0.105
7.048,0.115
7.052,0.12
7.056,0.125
7.06,0.14
7.064,0.14
7.068,0.155
7.072,0.135
7.076,0.145
7.08,0.14
7.084,0.125
7.088,0.125
7.092,0.125
7.096,0.1
7.1,0.115
7.104,0.11
7.108,0.09
7.112,0.09
7.116,0.1
7.12,0.08
7.124,0.07
7.128,0.055
7.132,0.06
7.136,0.06
7.14,0.065
7.144,0.06
7.148,0.065
7.152,0.055
7.156,0.075
7.16,0.07
7.164,0.075
7.168,0.065
7.172,0.065
7.176,0.065
7.18,0.065
7.184,0.08
7.188,0.075
7.192,0.085
7.196,0.125
7.2,0.175
7.204,0.25
7.208,0.39
7.212,0.59
7.216,0.8
7.22,0.925
7.224,0.92
7.228,0.665
7.232,0.275
7.236,-0.12
7.24,-0.325
7.244,-0.39
7.248,-0.32
7.252,-0.215
7.256,-0.125
7.26,-0.06
7.264,-0.02
7.268,0.03
7.272,0.06
7.276,0.085
7.28,0.08
7.284,0.065
7.288,0.08
7.292,0.08
7.296,0.08
7.3,0.1
7.304,0.095
7.308,0.1
7.312,0.11
7.316,0.095
7.32,0.12
7.324,0.115
7.328,0.115
7.332,0.11
7.336,0.1
7.34,0.12
7.344,0.115
7.348,0.135
7.352,0.115
7.356,0.125
7.36,0.14
7.364,0.125
7.368,0.135
7.372,0.125
7.376,0.15
7.38,0.14
7.384,0.14
7.388,0.15
7.392,0.14
7.396,0.135
7.4,0.16
7.404,0.17
7.408,0.16
7.412,0.17
7.416,0.18
7.42,0.18
7.424,0.18
7.428,0.19
7.432,0.185
7.436,0.2
7.44,0.21
7.444,0.23
7.448,0.22
7.452,0.22
7.456,0.22
7.46,0.225
7.464,0.225
7.468,0.23
7.472,0.235
7.476,0.235
7.48,0.225
7.484,0.22
7.488,0.215
7.492,0.205
7.496,0.2
7.5,0.21
7.504,0.195
7.508,0.19
7.512,0.16
7.516,0.17
7.52,0.14
7.524,0.105
7.528,0.11
7.532,0.085
7.536,0.075
7.54,0.06
7.544,0.045
7.548,0.04
7.552,0.025
7.556,0.025
7.56,0.03
7.564,0.02
7.568,0.01
7.572,-0.0
7.576,-0.0
7.58,0.005
7.584,0.005
7.588,0.015
7.592,0.005
7.596,0.02
7.6,0.02
7.604,0.005
7.608,-0.0
7.612,0.01
7.616,0.025
7.62,0.03
7.624,0.025
7.628,0.025
7.632,0.02
7.636,0.02
7.64,0.02
7.644,0.01
7.648,0.02
7.652,0.04
7.656,0.03
7.66,0.035
7.664,0.04
7.668,0.035
7.672,0.045
7.676,0.04
7.68,0.025
7.684,0.03
7.688,0.045
7.692,0.035
7.696,0.035
7.7,0.035
7.704,0.055
7.708,0.045
7.712,0.035
7.716,0.045
7.72,0.04
7.724,0.04
7.728,0.04
7.732,0.04
7.736,0.055
7.74,0.04
7.744,0.045
7.748,0.045
7.752,0.04
7.756,0.05
7.76,0.055
7.764,0.045
7.768,0.06
7.772,0.045
7.776,0.05
7.78,0.06
7.784,0.045
7.788,0.06
7.792,0.06
7.796,0.05
7.8,0.035
7.804,0.055
7.808,0.05
7.812,0.06
7.816,0.07
7.82,0.07
7.824,0.07
7.828,0.065
7.832,0.075
7.836,0.065
7.84,0.07
7.844,0.075
7.848,0.08
7.852,0.065
7.856,0.065
7.86,0.08
7.864,0.065
7.868,0.075
7.872,0.065
7.876,0.09
7.88,0.08
7.884,0.09
7.888,0.07
7.892,0.085
7.896,0.09
7.9,0.1
7.904,0.1
7.908,0.1
7.912,0.09
7.916,0.115
7.92,0.105
7.924,0.1
7.928,0.105
7.932,0.12
7.936,0.115
7.94,0.135
7.944,0.13
7.948,0.12
7.952,0.14
7.956,0.13
7.96,0.14
7.964,0.145
7.968,0.125
7.972,0.11
7.976,0.12
7.98,0.1
7.984,0.11
7.988,0.1
7.992,0.1
7.996,0.09
8.0,0.095
8.004,0.075
8.008,0.065
8.012,0.055
8.016,0.06
8.02,0.055
8.024,0.065
8.028,0.06
8.032,0.06
8.036,0.06
8.04,0.06
8.044,0.07
8.048,0.06
8.052,0.06
8.056,0.055
8.06,0.07
8.064,0.06
8.068,0.075
8.072,0.07
8.076,0.085
8.08,0.11
8.084,0.155
8.088,0.225
8.092,0.355
8.096,0.54
8.1,0.755
8.104,0.915
8.108,0.935
8.112,0.68
8.116,0.32
8.12,-0.08
8.124,-0.3
8.128,-0.395
8.132,-0.33
8.136,-0.22
8.14,-0.125
8.144,-0.06
8.148,-0.01
8.152,0.02
8.156,0.035
8.16,0.08
8.164,0.075
8.168,0.095
8.172,0.065
8.176,0.08
8.18,0.08
8.184,0.09
8.188,0.09
8.192,0.1
8.196,0.09
8.2,0.11
8.204,0.11
8.208,0.11
8.212,0.095
8.216,0.105
8.22,0.115
8.224,0.12
8.228,0.125
8.232,0.115
8.236,0.12
8.24,0.13
8.244,0.14
8.248,0.135
8.252,0.125
8.256,0.14
8.26,0.15
8.264,0.15
8.268,0.145
8.272,0.145
8.276,0.155
8.28,0.16
8.284,0.16
8.288,0.15
8.292,0.165
8.296,0.18
8.3,0.17
8.304,0.175
8.308,0.195
8.312,0.19
8.316,0.185
8.32,0.195
8.324,0.205
8.328,0.22
8.332,0.22
8.336,0.225
8.34,0.24
8.344,0.22
8.348,0.22
8.352,0.22
8.356,0.22
8.36,0.22
8.364,0.22
8.368,0.235
8.372,0.215
8.376,0.2
8.38,0.185
8.384,0.19
8.388,0.19
8.392,0.185
8.396,0.145
8.4,0.14
8.404,0.125
8.408,0.115
8.412,0.105
8.416,0.075
8.42,0.08
8.424,0.06
8.428,0.045
8.432,0.04
8.436,0.025
8.44,0.02
8.444,0.015
8.448,0.015
8.452,-0.0
8.456,0.01
8.46,0.005
8.464,0.01
8.468,0.005
8.472,-0.0
8.476,0.01
8.48,0.02
8.484,-0.0
8.488,0.015
8.492,0.02
8.496,0.015
8.5,0.01
8.504,0.03
8.508,0.035
8.512,0.02
8.516,0.03
8.52,0.035
8.524,0.025
8.528,0.035
8.532,0.035
8.536,0.02
8.54,0.02
8.544,0.04
8.548,0.02
8.552,0.03
8.556,0.03
8.56,0.04
8.564,0.04
8.568,0.04
8.572,0.04
8.576,0.06
8.58,0.04
8.584,0.05
8.588,0.05
8.592,0.045
8.596,0.04
8.6,0.055
8.604,0.06
8.608,0.05
8.612,0.055
8.616,0.04
8.62,0.055
8.624,0.05
8.628,0.05
8.632,0.04
8.636,0.06
8.64,0.04
8.644,0.05
8.648,0.04
8.652,0.045
8.656,0.04
8.66,0.045
8.664,0.055
8.668,0.04
8.672,0.06
8.676,0.04
8.68,0.045
8.684,0.06
8.688,0.065
8.692,0.055
8.696,0.06
8.7,0.065
8.704,0.06
8.708,0.06
8.712,0.06
8.716,0.075
8.72,0.06
8.724,0.07
8.728,0.07
8.732,0.07
8.736,0.08
8.74,0.07
8.744,0.075
8.748,0.08
8.752,0.08
8.756,0.09
8.76,0.08
8.764,0.08
8.768,0.08
8.772,0.105
8.776,0.08
8.78,0.11
8.784,0.105
8.788,0.11
8.792,0.11
8.796,0.11
8.8,0.115
8.804,0.125
8.808,0.135
8.812,0.13
8.816,0.145
8.82,0.15
8.824,0.125
8.828,0.12
8.832,0.125
8.836,0.135
8.84,0.125
8.844,0.11
8.848,0.105
8.852,0.095
8.856,0.09
8.86,0.09
8.864,0.08
8.868,0.08
8.872,0.07
8.876,0.055
8.88,0.065
8.884,0.07
8.888,0.06
8.892,0.065
8.896,0.07
8.9,0.065
8.904,0.075
8.908,0.08
8.912,0.075
8.916,0.065
8.92,0.06
8.924,0.08
8.928,0.06
8.932,0.08
8.936,0.06
8.94,0.12
8.944,0.14
8.948,0.205
8.952,0.325
8.956,0.495
8.96,0.715
8.964,0.9
8.968,0.94
8.972,0.7
8.976,0.38
8.98,-0.01
8.984,-0.31
8.988,-0.385
8.992,-0.38
8.996,-0.255
9.0,-0.145
9.004,-0.1
9.008,-0.035
9.012,-0.0
9.016,0.04
9.02,0.055
9.024,0.07
9.028,0.065
9.032,0.07
9.036,0.08
9.04,0.075
9.044,0.085
9.048,0.075
9.052,0.09
9.056,0.085
9.06,0.095
9.064,0.1
9.068,0.1
9.072,0.1
9.076,0.115
9.08,0.1
9.084,0.115
9.088,0.13
9.092,0.11
9.096,0.12
9.1,0.13
9.104,0.14
9.108,0.135
9.112,0.12
9.116,0.14
9.12,0.145
9.124,0.145
9.128,0.15
9.132,0.14
9.136,0.145
9.14,0.16
9.144,0.16
9.148,0.16
9.152,0.18
9.156,0.175
9.16,0.165
9.164,0.18
9.168,0.185
9.172,0.2
9.176,0.2
9.18,0.2
9.184,0.205
9.188,0.225
9.192,0.23
9.196,0.235
9.2,0.22
9.204,0.22
9.208,0.22
9.212,0.22
9.216,0.215
9.22,0.23
9.224,0.22
9.228,0.21
9.232,0.215
9.236,0.2
9.24,0.185
9.244,0.185
9.248,0.185
9.252,0.175
9.256,0.16
9.26,0.135
9.264,0.125
9.268,0.1
9.272,0.105
9.276,0.065
9.28,0.075
9.284,0.05
9.288,0.035
9.292,0.02
9.296,0.005
9.3,0.02
9.304,0.02
9.308,-0.0
9.312,-0.0
9.316,0.015
9.32,-0.0
9.324,-0.01
9.328,-0.0
9.332,-0.0
9.336,-0.0
9.34,-0.005
9.344,0.005
9.348,0.015
9.352,-0.0
9.356,0.01
9.36,0.02
9.364,0.005
9.368,0.02
9.372,0.02
9.376,0.025
9.38,0.035
9.384,0.02
9.388,0.03
9.392,0.025
9.396,0.045
9.4,0.035
9.404,0.005
9.408,0.035
9.412,0.04
9.416,0.04
9.42,0.03
9.424,0.035
9.428,0.035
9.432,0.05
9.436,0.045
9.44,0.045
9.444,0.06
9.448,0.035
9.452,0.055
9.456,0.04
9.46,0.04
9.464,0.05
9.468,0.035
9.472,0.045
9.476,0.06
9.48,0.055
9.484,0.06
9.488,0.05
9.492,0.06
9.496,0.035
9.5,0.06
9.504,0.045
9.508,0.04
9.512,0.06
9.516,0.04
9.52,0.04
9.524,0.055
9.528,0.05
9.532,0.06
9.536,0.06
9.54,0.06
9.544,0.06
9.548,0.05
9.552,0.06
9.556,0.05
9.56,0.065
9.564,0.05
9.568,0.055
9.572,0.06
9.576,0.06
9.58,0.065
9.584,0.05
9.588,0.065
9.592,0.055
9.596,0.05
9.6,0.06
9.604,0.065
9.608,0.08
9.612,0.055
9.616,0.085
9.62,0.06
9.624,0.08
9.628,0.065
9.632,0.08
9.636,0.08
9.64,0.1
9.644,0.08
9.648,0.11
9.652,0.1
9.656,0.105
9.66,0.115
9.664,0.11
9.668,0.125
9.672,0.145
9.676,0.145
9.68,0.145
9.684,0.135
9.688,0.14
9.692,0.12
9.696,0.13
9.7,0.135
9.704,0.125
9.708,0.12
9.712,0.105
9.716,0.105
9.72,0.09
9.724,0.1
9.728,0.08
9.732,0.08
9.736,0.06
9.74,0.08
9.744,0.07
9.748,0.065
9.752,0.07
9.756,0.065
9.76,0.07
9.764,0.07
9.768,0.09
9.772,0.065
9.776,0.08
9.78,0.065
9.784,0.1
9.788,0.07
9.792,0.08
9.796,0.075
9.8,0.085
9.804,0.115
9.808,0.14
9.812,0.2
9.816,0.285
9.82,0.44
9.824,0.63
9.828,0.84
9.832,0.885
9.836,0.795
9.84,0.5
9.844,0.13
9.848,-0.225
9.852,-0.345
9.856,-0.38
9.86,-0.265
9.864,-0.155
9.868,-0.095
9.872,-0.035
9.876,-0.01
9.88,0.05
9.884,0.075
9.888,0.08
9.892,0.085
9.896,0.09
9.9,0.07
9.904,0.08
9.908,0.075
9.912,0.08
9.916,0.085
9.92,0.09
9.924,0.095
9.928,0.095
9.932,0.1
9.936,0.1
9.94,0.1
9.944,0.115
9.948,0.1
9.952,0.11
9.956,0.125
9.96,0.115
9.964,0.125
9.968,0.12
9.972,0.13
9.976,0.14
9.98,0.135
9.984,0.15
9.988,0.135
9.992,0.14
9.996,0.16
10.0,0.16
10.004,0.17
10.008,0.175
10.012,0.165
10.016,0.18
10.02,0.18
10.024,0.2
10.028,0.2
10.032,0.195
10.036,0.195
10.04,0.21
10.044,0.21
10.048,0.22
10.052,0.22
10.056,0.22
10.06,0.22
10.064,0.225
10.068,0.24
10.072,0.235
10.076,0.24
10.08,0.23
10.084,0.225
10.088,0.225
10.092,0.22
10.096,0.22
10.1,0.215
10.104,0.22
10.108,0.205
10.112,0.185
10.116,0.17
10.12,0.17
10.124,0.16
10.128,0.16
10.132,0.125
10.136,0.115
10.14,0.075
10.144,0.08
10.148,0.06
10.152,0.04
10.156,0.03
10.16,0.02
10.164,0.025
10.168,0.005
10.172,-0.0
10.176,-0.005
10.18,-0.0
10.184,-0.0
10.188,-0.005
10.192,-0.0
10.196,-0.01
10.2,-0.0
10.204,0.005
10.208,-0.0
10.212,-0.0
10.216,0.01
10.22,0.015
10.224,0.01
10.228,0.01
10.232,0.015
10.236,0.02
10.24,0.025
10.244,0.015
10.248,0.03
10.252,0.015
10.256,0.035
10.26,0.04
10.264,0.025
10.268,0.02
10.272,0.03
10.276,0.035
10.28,0.04
10.284,0.05
10.288,0.04
10.292,0.05
10.296,0.04
10.3,0.06
10.304,0.05
10.308,0.06
10.312,0.055
10.316,0.055
10.32,0.065
10.324,0.06
10.328,0.065
10.332,0.055
10.336,0.055
10.34,0.05
10.344,0.06
10.348,0.06
10.352,0.06
10.356,0.05
10.36,0.06
10.364,0.06
10.368,0.045
10.372,0.05
10.376,0.06
10.38,0.05
10.384,0.05
10.388,0.06
10.392,0.065
10.396,0.06
10.4,0.06
10.404,0.055
10.408,0.06
10.412,0.06
10.416,0.08
10.42,0.065
10.424,0.06
10.428,0.07
10.432,0.065
10.436,0.07
10.44,0.055
10.444,0.075
10.448,0.07
10.452,0.08
10.456,0.075
10.46,0.06
10.464,0.07
10.468,0.065
10.472,0.08
10.476,0.055
10.48,0.06
10.484,0.06
10.488,0.075
10.492,0.075
10.496,0.095
10.5,0.09
10.504,0.095
10.508,0.08
10.512,0.1
10.516,0.1
10.52,0.125
10.524,0.135
10.528,0.13
10.532,0.14
10.536,0.14
10.54,0.13
10.544,0.125
10.548,0.115
10.552,0.12
10.556,0.115
10.56,0.1
10.564,0.105
10.568,0.08
10.572,0.095
10.576,0.085
10.58,0.07
10.584,0.09
10.588,0.06
10.592,0.075
10.596,0.065
10.6,0.065
10.604,0.08
10.608,0.08
10.612,0.065
10.616,0.07
10.62,0.085
10.624,0.08
10.628,0.095
10.632,0.08
10.636,0.09
10.64,0.075
10.644,0.085
10.648,0.07
10.652,0.1
10.656,0.12
10.66,0.185
10.664,0.25
10.668,0.4
10.672,0.56
10.676,0.755
10.68,0.865
10.684,0.87
10.688,0.615
10.692,0.245
10.696,-0.12
10.7,-0.31
10.704,-0.38
10.708,-0.285
10.712,-0.19
10.716,-0.1
10.72,-0.04
10.724,-0.0
10.728,0.02
10.732,0.04
10.736,0.06
10.74,0.055
10.744,0.065
10.748,0.065
10.752,0.06
10.756,0.065
10.76,0.085
10.764,0.09
10.768,0.08
10.772,0.08
10.776,0.1
10.78,0.095
10.784,0.1
10.788,0.1
10.792,0.1
10.796,0.08
10.8,0.1
10.804,0.1
10.808,0.1
10.812,0.115
10.816,0.1
10.82,0.135
10.824,0.12
10.828,0.12
10.832,0.125
10.836,0.125
10.84,0.135
10.844,0.13
10.848,0.13
10.852,0.145
10.856,0.15
10.86,0.155
10.864,0.165
10.868,0.16
10.872,0.17
10.876,0.175
10.88,0.19
10.884,0.2
10.888,0.19
10.892,0.19
10.896,0.2
10.9,0.21
10.904,0.22
10.908,0.22
10.912,0.235
10.916,0.24
10.92,0.225
10.924,0.22
10.928,0.225
10.932,0.23
10.936,0.225
10.94,0.22
10.944,0.2
10.948,0.195
10.952,0.21
10.956,0.21
10.96,0.205
10.964,0.175
10.968,0.16
10.972,0.16
10.976,0.115
10.98,0.105
10.984,0.1
10.988,0.07
10.992,0.065
10.996,0.06
11.0,0.015
11.004,0.06
11.008,0.015
11.012,0.02
11.016,0.025
11.02,0.015
11.024,-0.0
11.028,-0.0
11.032,-0.0
11.036,0.005
11.04,-0.01
11.044,-0.0
11.048,-0.0
11.052,-0.015
11.056,0.01
11.06,-0.0
11.064,0.01
11.068,-0.0
11.072,-0.0
11.076,0.015
11.08,-0.0
11.084,0.02
11.088,-0.0
11.092,0.005
11.096,-0.0
11.1,0.015
11.104,0.015
11.108,0.03
11.112,0.025
11.116,0.015
11.12,0.025
11.124,0.03
11.128,0.02
11.132,0.04
11.136,0.025
11.14,0.025
11.144,0.055
11.148,0.04
11.152,0.025
11.156,0.05
11.16,0.045
11.164,0.04
11.168,0.045
11.172,0.055
11.176,0.05
11.18,0.055
11.184,0.06
11.188,0.06
11.192,0.05
11.196,0.06
11.2,0.06
11.204,0.05
11.208,0.045
11.212,0.05
11.216,0.06
11.22,0.055
11.224,0.065
11.228,0.06
11.232,0.045
11.236,0.06
11.24,0.055
11.244,0.05
11.248,0.055
11.252,0.05
11.256,0.075
11.26,0.05
11.264,0.075
11.268,0.065
11.272,0.07
11.276,0.075
11.28,0.05
11.284,0.06
11.288,0.05
11.292,0.06
11.296,0.06
11.3,0.06
11.304,0.065
11.308,0.07
11.312,0.08
11.316,0.055
11.32,0.06
11.324,0.08
11.328,0.06
11.332,0.06
11.336,0.065
11.34,0.075
11.344,0.065
11.348,0.07
11.352,0.07
11.356,0.075
11.36,0.095
11.364,0.09
11.368,0.1
11.372,0.08
11.376,0.105
11.38,0.095
11.384,0.115
11.388,0.115
11.392,0.14
11.396,0.12
11.4,0.12
11.404,0.135
11.408,0.12
11.412,0.11
11.416,0.115
11.42,0.11
11.424,0.095
11.428,0.1
11.432,0.095
11.436,0.08
11.44,0.085
11.444,0.065
11.448,0.07
11.452,0.07
11.456,0.05
11.46,0.055
11.464,0.055
11.468,0.065
11.472,0.06
11.476,0.065
11.48,0.08
11.484,0.08
11.488,0.075
11.492,0.07
11.496,0.075
11.5,0.08
11.504,0.08
11.508,0.07
11.512,0.08
11.516,0.08
11.52,0.1
11.524,0.14
11.528,0.165
11.532,0.26
11.536,0.38
11.54,0.58
11.544,0.785
11.548,0.92
11.552,0.92
11.556,0.635
11.56,0.265
11.564,-0.135
11.568,-0.33
11.572,-0.4
11.576,-0.32
11.58,-0.195
11.584,-0.11
11.588,-0.06
11.592,-0.01
11.596,0.005
11.6,0.065
11.604,0.06
11.608,0.075
11.612,0.06
11.616,0.07
11.62,0.08
11.624,0.07
11.628,0.09
11.632,0.08
11.636,0.085
11.64,0.075
11.644,0.09
11.648,0.08
11.652,0.09
11.656,0.09
11.66,0.1
11.664,0.095
11.668,0.1
11.672,0.11
11.676,0.1
11.68,0.09
11.684,0.1
11.688,0.11
11.692,0.105
11.696,0.12
11.7,0.12
11.704,0.11
11.708,0.125
11.712,0.12
11.716,0.135
11.72,0.14
11.724,0.14
11.728,0.15
11.732,0.16
11.736,0.16
11.74,0.16
11.744,0.175
11.748,0.18
11.752,0.18
11.756,0.19
11.76,0.2
11.764,0.215
11.768,0.22
11.772,0.205
11.776,0.205
11.78,0.215
11.784,0.235
11.788,0.24
11.792,0.24
11.796,0.24
11.8,0.235
11.804,0.235
11.808,0.215
11.812,0.215
11.816,0.22
11.82,0.225
11.824,0.22
11.828,0.21
11.832,0.2
11.836,0.18
11.84,0.175
11.844,0.155
11.848,0.13
11.852,0.12
11.856,0.1
11.86,0.08
11.864,0.07
11.868,0.06
11.872,0.045
11.876,0.025
11.88,0.02
11.884,-0.0
11.888,0.005
11.892,-0.0
11.896,-0.0
11.9,-0.02
11.904,-0.0
11.908,-0.0
11.912,-0.0
11.916,-0.0
11.92,-0.0
11.924,0.005
11.928,-0.0
11.932,-0.01
11.936,-0.0
11.94,-0.0
11.944,-0.0
11.948,-0.0
11.952,0.015
11.956,-0.0
11.96,0.015
11.964,0.02
11.968,0.03
11.972,0.015
11.976,0.02
11.98,0.02
11.984,0.025
11.988,0.035
11.992,0.03
11.996,0.01
12.0,0.03
12.004,0.03
12.008,0.025
12.012,0.04
12.016,0.02
12.02,0.04
12.024,0.035
12.028,0.02
12.032,0.045
12.036,0.04
12.04,0.04
12.044,0.05
12.048,0.04
12.052,0.04
12.056,0.045
12.06,0.055
12.064,0.06
12.068,0.05
12.072,0.05
12.076,0.045
12.08,0.035
12.084,0.06
12.088,0.05
12.092,0.05
12.096,0.045
12.1,0.06
12.104,0.07
12.108,0.065
12.112,0.065
12.116,0.065
12.12,0.065
12.124,0.075
12.128,0.08
12.132,0.08
12.136,0.08
12.14,0.075
12.144,0.075
12.148,0.075
12.152,0.075
12.156,0.06
12.16,0.075
12.164,0.075
12.168,0.08
12.172,0.075
12.176,0.08
12.18,0.07
12.184,0.08
12.188,0.08
12.192,0.085
12.196,0.08
12.2,0.075
12.204,0.08
12.208,0.08
12.212,0.08
12.216,0.07
12.22,0.1
12.224,0.08
12.228,0.08
12.232,0.07
12.236,0.08
12.24,0.07
12.244,0.085
12.248,0.07
12.252,0.09
12.256,0.075
12.26,0.085
12.264,0.09
12.268,0.1
12.272,0.12
12.276,0.105
12.28,0.115
12.284,0.1
12.288,0.11
12.292,0.115
12.296,0.135
12.3,0.125
12.304,0.135
12.308,0.135
12.312,0.14
12.316,0.13
12.32,0.115
12.324,0.105
12.328,0.12
12.332,0.12
12.336,0.11
12.34,0.11
12.344,0.105
12.348,0.09
12.352,0.095
12.356,0.08
12.36,0.08
12.364,0.065
12.368,0.075
12.372,0.08
12.376,0.065
12.38,0.08
12.384,0.07
12.388,0.08
12.392,0.07
12.396,0.08
12.4,0.065
12.404,0.08
12.408,0.08
12.412,0.08
12.416,0.075
12.42,0.085
12.424,0.09
12.428,0.07
12.432,0.125
12.436,0.145
12.44,0.205
12.444,0.32
12.448,0.48
12.452,0.7
12.456,0.895
12.46,0.975
12.464,0.79
12.468,0.485
12.472,0.08
12.476,-0.235
12.48,-0.36
12.484,-0.36
12.488,-0.25
12.492,-0.15
12.496,-0.08
12.5,-0.04
12.504,0.005
12.508,0.04
12.512,0.065
12.516,0.08
12.52,0.07
12.524,0.065
12.528,0.07
12.532,0.075
12.536,0.08
12.54,0.08
12.544,0.095
12.548,0.07
12.552,0.09
12.556,0.095
12.56,0.09
12.564,0.1
12.568,0.1
12.572,0.105
12.576,0.095
12.58,0.115
12.584,0.12
12.588,0.13
12.592,0.11
12.596,0.115
12.6,0.12
12.604,0.105
12.608,0.125
12.612,0.125
12.616,0.125
12.62,0.14
12.624,0.14
12.628,0.14
12.632,0.15
12.636,0.16
12.64,0.155
12.644,0.165
12.648,0.175
12.652,0.16
12.656,0.175
12.66,0.18
12.664,0.185
12.668,0.2
12.672,0.2
12.676,0.22
12.68,0.22
12.684,0.22
12.688,0.235
12.692,0.23
12.696,0.235
12.7,0.24
12.704,0.24
12.708,0.23
12.712,0.235
12.716,0.235
12.72,0.23
12.724,0.23
12.728,0.23
12.732,0.21
12.736,0.205
12.74,0.2
12.744,0.21
12.748,0.18
12.752,0.16
12.756,0.155
12.76,0.135
12.764,0.12
12.768,0.11
12.772,0.08
12.776,0.08
12.78,0.045
12.784,0.05
12.788,0.04
12.792,0.02
12.796,0.02
12.8,0.02
12.804,0.01
12.808,0.01
12.812,-0.0
12.816,-0.0
12.82,-0.015
12.824,-0.0
12.828,0.015
12.832,-0.0
12.836,-0.005
12.84,-0.0
12.844,-0.0
12.848,0.005
12.852,-0.0
12.856,0.02
12.86,0.005
12.864,0.02
12.868,0.015
12.872,0.015
12.876,0.005
12.88,0.02
12.884,0.03
12.888,0.02
12.892,0.02
12.896,0.03
12.9,0.02
12.904,0.035
12.908,0.03
12.912,0.02
12.916,0.045
12.92,0.035
12.924,0.035
12.928,0.04
12.932,0.04
12.936,0.035
12.94,0.045
12.944,0.02
12.948,0.06
12.952,0.035
12.956,0.04
12.96,0.05
12.964,0.04
12.968,0.05
12.972,0.045
12.976,0.04
12.98,0.04
12.984,0.055
12.988,0.06
12.992,0.04
12.996,0.05
13.0,0.05
13.004,0.055
13.008,0.06
13.012,0.06
13.016,0.075
13.02,0.045
13.024,0.065
13.028,0.075
13.032,0.06
13.036,0.075
13.04,0.065
13.044,0.075
13.048,0.07
13.052,0.06
13.056,0.065
13.06,0.06
13.064,0.08
13.068,0.065
13.072,0.09
13.076,0.07
13.08,0.065
13.084,0.065
13.088,0.085
13.092,0.08
13.096,0.07
13.1,0.07
13.104,0.065
13.108,0.085
13.112,0.06
13.116,0.075
13.12,0.08
13.124,0.09
13.128,0.08
13.132,0.08
13.136,0.08
13.14,0.09
13.144,0.08
13.148,0.08
13.152,0.095
13.156,0.08
13.16,0.08
13.164,0.085
13.168,0.07
13.172,0.08
13.176,0.075
13.18,0.08
13.184,0.07
13.188,0.08
13.192,0.08
13.196,0.085
13.2,0.095
13.204,0.09
13.208,0.09
13.212,0.095
13.216,0.1
13.22,0.1
13.224,0.1
13.228,0.105
13.232,0.105
13.236,0.115
13.24,0.12
13.244,0.115
13.248,0.14
13.252,0.145
13.256,0.15
13.26,0.15
13.264,0.145
13.268,0.13
13.272,0.135
13.276,0.135
13.28,0.115
13.284,0.11
13.288,0.12
13.292,0.11
13.296,0.095
13.3,0.1
13.304,0.095
13.308,0.09
13.312,0.075
13.316,0.07
13.32,0.075
13.324,0.085
13.328,0.075
13.332,0.08
13.336,0.08
13.34,0.085
13.344,0.1
13.348,0.09
13.352,0.085
13.356,0.09
13.36,0.08
13.364,0.09
13.368,0.075
13.372,0.09
13.376,0.08
13.38,0.105
13.384,0.13
13.388,0.195
13.392,0.29
13.396,0.425
13.4,0.615
13.404,0.85
13.408,0.925
13.412,0.86
13.416,0.57
13.42,0.205
13.424,-0.2
13.428,-0.34
13.432,-0.375
13.436,-0.295
13.44,-0.18
13.444,-0.12
13.448,-0.05
13.452,-0.005
13.456,0.02
13.46,0.05
13.464,0.065
13.468,0.065
13.472,0.065
13.476,0.065
13.48,0.07
13.484,0.075
13.488,0.08
13.492,0.07
13.496,0.09
13.5,0.08
13.504,0.085
13.508,0.08
13.512,0.095
13.516,0.1
13.52,0.095
13.524,0.1
13.528,0.09
13.532,0.105
13.536,0.11
13.54,0.105
13.544,0.125
13.548,0.12
13.552,0.14
13.556,0.125
13.56,0.135
13.564,0.14
13.568,0.12
13.572,0.135
13.576,0.145
13.58,0.15
13.584,0.16
13.588,0.15
13.592,0.175
13.596,0.155
13.6,0.18
13.604,0.18
13.608,0.18
13.612,0.195
13.616,0.205
13.62,0.205
13.624,0.2
13.628,0.215
13.632,0.23
13.636,0.23
13.64,0.235
13.644,0.245
13.648,0.235
13.652,0.235
13.656,0.24
13.66,0.235
13.664,0.24
13.668,0.235
13.672,0.225
13.676,0.22
13.68,0.23
13.684,0.21
13.688,0.2
13.692,0.19
13.696,0.185
13.7,0.16
13.704,0.135
13.708,0.14
13.712,0.115
13.716,0.105
13.72,0.08
13.724,0.06
13.728,0.075
13.732,0.055
13.736,0.025
13.74,0.02
13.744,0.02
13.748,0.015
13.752,0.01
13.756,0.005
13.76,-0.0
13.764,-0.015
13.768,-0.0
13.772,-0.01
13.776,-0.015
13.78,-0.005
13.784,0.01
13.788,0.005
13.792,-0.0
13.796,0.015
13.8,-0.0
13.804,0.005
13.808,-0.0
13.812,0.015
13.816,-0.0
13.82,0.015
13.824,0.02
13.828,0.02
13.832,0.02
13.836,0.02
13.84,0.01
13.844,0.02
13.848,0.025
13.852,0.015
13.856,0.025
13.86,0.02
13.864,0.025
13.868,0.025
13.872,0.03
13.876,0.03
13.88,0.045
13.884,0.055
13.888,0.04
13.892,0.05
13.896,0.04
13.9,0.04
13.904,0.06
13.908,0.055
13.912,0.06
13.916,0.055
13.92,0.05
13.924,0.05
13.928,0.06
13.932,0.06
13.936,0.05
13.94,0.06
13.944,0.06
13.948,0.055
13.952,0.06
13.956,0.06
13.96,0.06
13.964,0.06
13.968,0.06
13.972,0.065
13.976,0.065
13.98,0.055
13.984,0.06
13.988,0.06
13.992,0.08
13.996,0.06
14.0,0.07
14.004,0.06
14.008,0.06
14.012,0.06
14.016,0.06
14.02,0.07
14.024,0.06
14.028,0.08
14.032,0.05
14.036,0.075
14.04,0.06
14.044,0.08
14.048,0.07
14.052,0.07
14.056,0.08
14.06,0.075
14.064,0.085
14.068,0.07
14.072,0.08
14.076,0.065
14.08,0.08
14.084,0.06
14.088,0.075
14.092,0.07
14.096,0.08
14.1,0.07
14.104,0.08
14.108,0.075
14.112,0.08
14.116,0.08
14.12,0.08
14.124,0.07
14.128,0.08
14.132,0.065
14.136,0.085
14.14,0.08
14.144,0.075
14.148,0.085
14.152,0.085
14.156,0.095
14.16,0.09
14.164,0.08
14.168,0.1
14.172,0.08
14.176,0.095
14.18,0.09
14.184,0.11
14.188,0.095
14.192,0.115
14.196,0.1
14.2,0.105
14.204,0.115
14.208,0.12
14.212,0.115
14.216,0.125
14.22,0.125
14.224,0.135
14.228,0.145
14.232,0.155
14.236,0.15
14.24,0.155
14.244,0.15
14.248,0.15
14.252,0.15
14.256,0.14
14.26,0.125
14.264,0.125
14.268,0.12
14.272,0.115
14.276,0.115
14.28,0.105
14.284,0.1
14.288,0.085
14.292,0.08
14.296,0.07
14.3,0.08
14.304,0.08
14.308,0.065
14.312,0.08
14.316,0.075
14.32,0.065
14.324,0.075
14.328,0.085
14.332,0.08
14.336,0.08
14.34,0.08
14.344,0.08
14.348,0.08
14.352,0.085
14.356,0.075
14.36,0.105
14.364,0.14
14.368,0.195
14.372,0.285
14.376,0.425
14.38,0.62
14.384,0.825
14.388,0.9
14.392,0.835
14.396,0.55
14.4,0.165
14.404,-0.195
14.408,-0.34
14.412,-0.375
14.416,-0.29
14.42,-0.18
14.424,-0.11
14.428,-0.04
14.432,-0.015
14.436,0.025
14.44,0.065
14.444,0.07
14.448,0.07
14.452,0.06
14.456,0.08
14.46,0.075
14.464,0.08
14.468,0.08
14.472,0.08
14.476,0.095
14.48,0.095
14.484,0.1
14.488,0.1
14.492,0.1
14.496,0.11
14.5,0.1
14.504,0.12
14.508,0.1
14.512,0.12
14.516,0.12
14.52,0.12
14.524,0.12
14.528,0.12
14.532,0.14
14.536,0.13
14.54,0.145
14.544,0.14
14.548,0.135
14.552,0.145
14.556,0.165
14.56,0.16
14.564,0.165
14.568,0.18
14.572,0.18
14.576,0.18
14.58,0.19
14.584,0.185
14.588,0.185
14.592,0.185
14.596,0.2
14.6,0.205
14.604,0.21
14.608,0.21
14.612,0.21
14.616,0.22
14.62,0.23
14.624,0.235
14.628,0.24
14.632,0.245
14.636,0.235
14.64,0.24
14.644,0.225
14.648,0.225
14.652,0.215
14.656,0.22
14.66,0.205
14.664,0.22
14.668,0.2
14.672,0.18
14.676,0.175
14.68,0.165
14.684,0.145
14.688,0.125
14.692,0.13
14.696,0.11
14.7,0.085
14.704,0.065
14.708,0.06
14.712,0.04
14.716,0.04
14.72,0.035
14.724,0.005
14.728,0.015
14.732,-0.005
14.736,-0.0
14.74,-0.0
14.744,0.02
14.748,-0.0
14.752,-0.0
14.756,0.005
14.76,-0.0
14.764,-0.0
14.768,-0.0
14.772,-0.0
14.776,-0.0
14.78,-0.0
14.784,0.01
14.788,0.005
14.792,0.005
14.796,0.025
14.8,0.02
14.804,0.02
14.808,0.025
14.812,0.03
14.816,0.02
14.82,0.03
14.824,0.035
14.828,0.03
14.832,0.04
14.836,0.04
14.84,0.04
14.844,0.045
14.848,0.05
14.852,0.05
14.856,0.05
14.86,0.06
14.864,0.045
14.868,0.045
14.872,0.045
14.876,0.065
14.88,0.045
14.884,0.06
14.888,0.055
14.892,0.06
14.896,0.055
14.9,0.045
14.904,0.065
14.908,0.05
14.912,0.055
14.916,0.06
14.92,0.04
14.924,0.06
14.928,0.06
14.932,0.045
14.936,0.075
14.94,0.055
14.944,0.06
14.948,0.05
14.952,0.045
14.956,0.06
14.96,0.06
14.964,0.06
14.968,0.05
14.972,0.06
14.976,0.06
14.98,0.065
14.984,0.06
14.988,0.06
14.992,0.07
14.996,0.075
15.0,0.08
15.004,0.05
15.008,0.06
15.012,0.05
15.016,0.065
15.02,0.06
15.024,0.045
15.028,0.06
15.032,0.05
15.036,0.08
15.04,0.06
15.044,0.065
15.048,0.065
15.052,0.08
15.056,0.07
15.06,0.08
15.064,0.08
15.068,0.065
15.072,0.075
15.076,0.08
15.08,0.075
15.084,0.08
15.088,0.075
15.092,0.08
15.096,0.095
15.1,0.075
15.104,0.1
15.108,0.075
15.112,0.08
15.116,0.09
15.12,0.09
15.124,0.08
15.128,0.09
15.132,0.1
15.136,0.09
15.14,0.095
15.144,0.08
15.148,0.095
15.152,0.1
15.156,0.095
15.16,0.115
15.164,0.11
15.168,0.12
15.172,0.135
15.176,0.125
15.18,0.135
15.184,0.12
15.188,0.135
15.192,0.145
15.196,0.135
15.2,0.145
15.204,0.15
15.208,0.145
15.212,0.15
15.216,0.145
15.22,0.15
15.224,0.15
15.228,0.115
15.232,0.11
15.236,0.12
15.24,0.1
15.244,0.105
15.248,0.1
15.252,0.11
15.256,0.08
15.26,0.06
15.264,0.06
15.268,0.08
15.272,0.08
15.276,0.08
15.28,0.08
15.284,0.075
15.288,0.07
15.292,0.075
15.296,0.075
15.3,0.09
15.304,0.09
15.308,0.08
15.312,0.07
15.316,0.075
15.32,0.07
15.324,0.06
15.328,0.1
15.332,0.14
15.336,0.18
15.34,0.255
15.344,0.38
15.348,0.59
15.352,0.765
15.356,0.86
15.36,0.825
15.364,0.55
15.368,0.2
15.372,-0.155
15.376,-0.31
15.38,-0.345
15.384,-0.27
15.388,-0.155
15.392,-0.07
15.396,-0.035
15.4,-0.0
15.404,0.04
15.408,0.07
15.412,0.075
15.416,0.075
15.42,0.065
15.424,0.08
15.428,0.07
15.432,0.08
15.436,0.085
15.44,0.08
15.444,0.095
15.448,0.11
15.452,0.085
15.456,0.1
15.46,0.1
15.464,0.12
15.468,0.095
15.472,0.115
15.476,0.105
15.48,0.125
15.484,0.12
15.488,0.11
15.492,0.12
15.496,0.12
15.5,0.125
15.504,0.12
15.508,0.13
15.512,0.13
15.516,0.135
15.52,0.145
15.524,0.14
15.528,0.155
15.532,0.155
15.536,0.15
15.54,0.15
15.544,0.18
15.548,0.17
15.552,0.175
15.556,0.18
15.56,0.2
15.564,0.2
15.568,0.185
15.572,0.19
15.576,0.2
15.58,0.22
15.584,0.215
15.588,0.225
15.592,0.22
15.596,0.205
15.6,0.22
15.604,0.22
15.608,0.22
15.612,0.22
15.616,0.22
15.62,0.21
15.624,0.2
15.628,0.19
15.632,0.18
15.636,0.17
15.64,0.16
15.644,0.13
15.648,0.125
15.652,0.125
15.656,0.11
15.66,0.1
15.664,0.08
15.668,0.085
15.672,0.065
15.676,0.04
15.68,0.04
15.684,0.04
15.688,0.02
15.692,0.005
15.696,0.015
15.7,0.015
15.704,-0.0
15.708,-0.0
15.712,0.015
15.716,0.02
15.72,-0.005
15.724,-0.0
15.728,0.015
15.732,-0.005
15.736,0.01
15.74,0.01
15.744,0.015
15.748,0.015
15.752,0.005
15.756,0.02
15.76,0.02
15.764,0.01
15.768,0.025
15.772,0.03
15.776,0.015
15.78,0.015
15.784,0.02
15.788,0.015
15.792,0.025
15.796,0.03
15.8,0.02
15.804,0.04
15.808,0.045
15.812,0.02
15.816,0.04
15.82,0.04
15.824,0.03
15.828,0.035
15.832,0.05
15.836,0.045
15.84,0.04
15.844,0.045
15.848,0.04
15.852,0.04
15.856,0.04
15.86,0.055
15.864,0.035
15.868,0.05
15.872,0.045
15.876,0.04
15.88,0.05
15.884,0.04
15.888,0.04
15.892,0.04
15.896,0.04
15.9,0.04
15.904,0.025
15.908,0.04
15.912,0.05
15.916,0.05
15.92,0.06
15.924,0.045
15.928,0.045
15.932,0.045
15.936,0.055
15.94,0.05
15.944,0.05
15.948,0.04
15.952,0.05
15.956,0.05
15.96,0.06
15.964,0.04
15.968,0.04
15.972,0.06
15.976,0.065
15.98,0.06
15.984,0.05
15.988,0.06
15.992,0.04
15.996,0.06
16.0,0.055
16.004,0.07
16.008,0.075
16.012,0.065
16.016,0.06
16.02,0.06
16.024,0.085
16.028,0.065
16.032,0.075
16.036,0.07
16.04,0.07
16.044,0.08
16.048,0.085
16.052,0.075
16.056,0.07
16.06,0.075
16.064,0.08
16.068,0.085
16.072,0.08
16.076,0.09
16.08,0.075
16.084,0.095
16.088,0.08
16.092,0.09
16.096,0.09
16.1,0.095
16.104,0.08
16.108,0.095
16.112,0.085
16.116,0.08
16.12,0.09
16.124,0.1
16.128,0.1
16.132,0.115
16.136,0.1
16.14,0.105
16.144,0.11
16.148,0.12
16.152,0.14
16.156,0.125
16.16,0.135
16.164,0.14
16.168,0.135
16.172,0.15
16.176,0.135
16.18,0.125
16.184,0.125
16.188,0.1
16.192,0.095
16.196,0.095
16.2,0.1
16.204,0.085
16.208,0.08
16.212,0.06
16.216,0.065
16.22,0.05
16.224,0.06
16.228,0.06
16.232,0.06
16.236,0.06
16.24,0.065
16.244,0.055
16.248,0.06
16.252,0.085
16.256,0.06
16.26,0.07
16.264,0.07
16.268,0.07
16.272,0.055
16.276,0.065
16.28,0.06
16.284,0.085
16.288,0.13
16.292,0.18
16.296,0.27
16.3,0.42
16.304,0.615
16.308,0.82
16.312,0.92
16.316,0.87
16.32,0.6
16.324,0.22
16.328,-0.18
16.332,-0.345
16.336,-0.38
16.34,-0.29
16.344,-0.17
16.348,-0.09
16.352,-0.04
16.356,-0.0
16.36,0.035
16.364,0.055
16.368,0.075
16.372,0.07
16.376,0.06
16.38,0.065
16.384,0.08
16.388,0.075
16.392,0.1
16.396,0.08
16.4,0.095
16.404,0.095
16.408,0.105
16.412,0.095
16.416,0.105
16.42,0.1
16.424,0.11
16.428,0.11
16.432,0.115
16.436,0.095
16.44,0.11
16.444,0.115
16.448,0.115
16.452,0.12
16.456,0.12
16.46,0.14
16.464,0.13
16.468,0.145
16.472,0.15
16.476,0.12
16.48,0.125
16.484,0.155
16.488,0.15
16.492,0.15
16.496,0.165
16.5,0.155
16.504,0.16
16.508,0.17
16.512,0.17
16.516,0.17
16.52,0.185
16.524,0.185
16.528,0.2
16.532,0.205
16.536,0.21
16.54,0.205
16.544,0.21
16.548,0.205
16.552,0.22
16.556,0.225
16.56,0.24
16.564,0.24
16.568,0.225
16.572,0.23
16.576,0.22
16.58,0.205
16.584,0.22
16.588,0.215
16.592,0.215
16.596,0.2
16.6,0.185
16.604,0.16
16.608,0.145
16.612,0.13
16.616,0.11
16.62,0.1
16.624,0.08
16.628,0.07
16.632,0.05
16.636,0.04
16.64,0.025
16.644,0.02
16.648,0.02
16.652,0.015
16.656,0.005
16.66,0.005
16.664,0.005
16.668,0.01
16.672,0.005
16.676,-0.0
16.68,0.005
16.684,0.01
16.688,0.015
16.692,-0.0
16.696,-0.0
16.7,0.02
16.704,-0.0
16.708,0.02
16.712,0.02
16.716,0.015
16.72,0.015
16.724,0.02
16.728,0.02
16.732,0.02
16.736,0.025
16.74,0.025
16.744,0.02
16.748,0.02
16.752,0.04
16.756,0.04
16.76,0.03
16.764,0.035
16.768,0.03
16.772,0.04
16.776,0.05
16.78,0.035
16.784,0.045
16.788,0.04
16.792,0.03
16.796,0.05
16.8,0.035
16.804,0.04
16.808,0.035
16.812,0.04
16.816,0.045
16.82,0.04
16.824,0.055
16.828,0.045
16.832,0.04
16.836,0.055
16.84,0.04
16.844,0.04
16.848,0.04
16.852,0.04
16.856,0.06
16.86,0.04
16.864,0.04
16.868,0.035
16.872,0.06
16.876,0.055
16.88,0.04
16.884,0.05
16.888,0.04
16.892,0.045
16.896,0.04
16.9,0.06
16.904,0.05
16.908,0.06
16.912,0.065
16.916,0.055
16.92,0.075
16.924,0.07
16.928,0.08
16.932,0.08
16.936,0.07
16.94,0.08
16.944,0.06
16.948,0.07
16.952,0.07
16.956,0.09
16.96,0.07
16.964,0.08
16.968,0.075
16.972,0.07
16.976,0.09
16.98,0.08
16.984,0.09
16.988,0.09
16.992,0.09
16.996,0.085
17.0,0.095
17.004,0.08
17.008,0.09
17.012,0.085
17.016,0.08
17.02,0.08
17.024,0.08
17.028,0.09
17.032,0.09
17.036,0.085
17.04,0.08
17.044,0.075
17.048,0.09
17.052,0.1
17.056,0.115
17.06,0.09
17.064,0.08
17.068,0.09
17.072,0.1
17.076,0.095
17.08,0.1
17.084,0.1
17.088,0.095
17.092,0.085
17.096,0.085
17.1,0.095
17.104,0.1
17.108,0.095
17.112,0.11
17.116,0.1
17.12,0.12
17.124,0.115
17.128,0.12
17.132,0.14
17.136,0.125
17.14,0.125
17.144,0.145
17.148,0.15
17.152,0.155
17.156,0.16
17.16,0.16
17.164,0.135
17.168,0.14
17.172,0.125
17.176,0.105
17.18,0.115
17.184,0.11
17.188,0.11
17.192,0.12
17.196,0.1
17.2,0.08
17.204,0.07
17.208,0.075
17.212,0.07
17.216,0.07
17.22,0.08
17.224,0.075
17.228,0.075
17.232,0.075
17.236,0.085
17.24,0.08
17.244,0.075
17.248,0.07
17.252,0.095
17.256,0.08
17.26,0.09
17.264,0.07
17.268,0.075
17.272,0.125
17.276,0.14
17.28,0.22
17.284,0.34
17.288,0.5
17.292,0.715
17.296,0.88
17.3,0.96
17.304,0.795
17.308,0.48
17.312,0.095
17.316,-0.24
17.32,-0.365
17.324,-0.36
17.328,-0.245
17.332,-0.15
17.336,-0.08
17.34,-0.04
17.344,0.015
17.348,0.04
17.352,0.07
17.356,0.08
17.36,0.06
17.364,0.07
17.368,0.08
17.372,0.07
17.376,0.08
17.38,0.08
17.384,0.095
17.388,0.085
17.392,0.09
17.396,0.095
17.4,0.095
17.404,0.1
17.408,0.095
17.412,0.11
17.416,0.1
17.42,0.1
17.424,0.12
17.428,0.115
17.432,0.12
17.436,0.1
17.44,0.12
17.444,0.135
17.448,0.115
17.452,0.135
17.456,0.14
17.46,0.125
17.464,0.135
17.468,0.14
17.472,0.14
17.476,0.16
17.48,0.165
17.484,0.16
17.488,0.17
17.492,0.18
17.496,0.18
17.5,0.185
17.504,0.18
17.508,0.2
17.512,0.205
17.516,0.205
17.52,0.215
17.524,0.22
17.528,0.225
17.532,0.24
17.536,0.245
17.54,0.24
17.544,0.245
17.548,0.24
17.552,0.235
17.556,0.24
17.56,0.235
17.564,0.22
17.568,0.24
17.572,0.225
17.576,0.23
17.58,0.215
17.584,0.195
17.588,0.19
17.592,0.18
17.596,0.17
17.6,0.125
17.604,0.115
17.608,0.1
17.612,0.1
17.616,0.07
17.62,0.06
17.624,0.05
17.628,0.04
17.632,0.03
17.636,0.015
17.64,0.005
17.644,0.005
17.648,-0.01
17.652,-0.0
17.656,0.005
17.66,-0.0
17.664,-0.005
17.668,-0.02
17.672,-0.0
17.676,-0.0
17.68,-0.0
17.684,-0.0
17.688,0.005
17.692,-0.0
17.696,-0.0
17.7,0.005
17.704,0.015
17.708,0.005
17.712,0.02
17.716,0.015
17.72,0.01
17.724,0.005
17.728,0.025
17.732,0.02
17.736,0.035
17.74,0.035
17.744,0.02
17.748,0.015
17.752,0.02
17.756,0.025
17.76,0.035
17.764,0.03
17.768,0.025
17.772,0.045
17.776,0.04
17.78,0.035
17.784,0.04
17.788,0.045
17.792,0.04
17.796,0.035
17.8,0.04
17.804,0.045
17.808,0.04
17.812,0.05
17.816,0.04
17.82,0.055
17.824,0.065
17.828,0.055
17.832,0.055
17.836,0.045
17.84,0.05
17.844,0.055
17.848,0.05
17.852,0.055
17.856,0.04
17.86,0.045
17.864,0.06
17.868,0.055
17.872,0.055
17.876,0.045
17.88,0.05
17.884,0.07
17.888,0.06
17.892,0.06
17.896,0.06
17.9,0.06
17.904,0.06
17.908,0.06
17.912,0.08
17.916,0.065
17.92,0.08
17.924,0.06
17.928,0.07
17.932,0.08
17.936,0.08
17.94,0.07
17.944,0.08
17.948,0.075
17.952,0.065
17.956,0.085
17.96,0.06
17.964,0.075
17.968,0.075
17.972,0.075
17.976,0.06
17.98,0.08
17.984,0.085
17.988,0.065
17.992,0.06
17.996,0.07
18.0,0.08
18.004,0.06
18.008,0.08
18.012,0.08
18.016,0.085
18.02,0.065
18.024,0.08
18.028,0.075
18.032,0.095
18.036,0.08
18.04,0.085
18.044,0.08
18.048,0.085
18.052,0.065
18.056,0.08
18.06,0.085
18.064,0.08
18.068,0.085
18.072,0.085
18.076,0.08
18.08,0.08
18.084,0.1
18.088,0.08
18.092,0.095
18.096,0.08
18.1,0.09
18.104,0.095
18.108,0.1
18.112,0.1
18.116,0.105
18.12,0.11
18.124,0.12
18.128,0.125
18.132,0.12
18.136,0.14
18.14,0.145
18.144,0.155
18.148,0.18
18.152,0.165
18.156,0.16
18.16,0.16
18.164,0.16
18.168,0.125
18.172,0.125
18.176,0.125
18.18,0.105
18.184,0.135
18.188,0.115
18.192,0.125
18.196,0.09
18.2,0.095
18.204,0.07
18.208,0.08
18.212,0.07
18.216,0.08
18.22,0.085
18.224,0.08
18.228,0.065
18.232,0.075
18.236,0.07
18.24,0.08
18.244,0.075
18.248,0.08
18.252,0.08
18.256,0.075
18.26,0.08
18.264,0.05
18.268,0.105
18.272,0.125
18.276,0.195
18.28,0.315
18.284,0.475
18.288,0.685
18.292,0.865
18.296,0.935
18.3,0.775
18.304,0.48
18.308,0.08
18.312,-0.255
18.316,-0.38
18.32,-0.38
18.324,-0.26
18.328,-0.155
18.332,-0.095
18.336,-0.04
18.34,0.02
18.344,0.035
18.348,0.06
18.352,0.06
18.356,0.075
18.36,0.065
18.364,0.06
18.368,0.07
18.372,0.075
18.376,0.08
18.38,0.08
18.384,0.08
18.388,0.08
18.392,0.095
18.396,0.09
18.4,0.1
18.404,0.1
18.408,0.1
18.412,0.12
18.416,0.105
18.42,0.105
18.424,0.1
18.428,0.12
18.432,0.12
18.436,0.12
18.44,0.13
18.444,0.12
18.448,0.14
18.452,0.14
18.456,0.13
18.46,0.145
18.464,0.15
18.468,0.155
18.472,0.165
18.476,0.17
18.48,0.16
18.484,0.175
18.488,0.185
18.492,0.18
18.496,0.2
18.5,0.2
18.504,0.21
18.508,0.22
18.512,0.21
18.516,0.22
18.52,0.22
18.524,0.24
18.528,0.235
18.532,0.235
18.536,0.24
18.54,0.23
18.544,0.23
18.548,0.22
18.552,0.23
18.556,0.22
18.56,0.235
18.564,0.22
18.568,0.22
18.572,0.2
18.576,0.195
18.58,0.18
18.584,0.175
18.588,0.16
18.592,0.14
18.596,0.13
18.6,0.12
18.604,0.1
18.608,0.075
18.612,0.06
18.616,0.045
18.62,0.04
18.624,0.02
18.628,0.03
18.632,0.015
18.636,-0.0
18.64,-0.0
18.644,0.01
18.648,-0.005
18.652,-0.01
18.656,0.01
18.66,-0.0
18.664,-0.015
18.668,-0.0
18.672,0.005
18.676,-0.0
18.68,-0.005
18.684,-0.0
18.688,-0.0
18.692,0.005
18.696,-0.0
18.7,-0.0
18.704,0.005
18.708,-0.0
18.712,0.01
18.716,0.025
18.72,0.01
18.724,0.02
18.728,0.025
18.732,0.02
18.736,0.005
18.74,0.04
18.744,0.04
18.748,0.025
18.752,0.04
18.756,0.04
18.76,0.045
18.764,0.04
18.768,0.04
18.772,0.06
18.776,0.04
18.78,0.05
18.784,0.06
18.788,0.04
18.792,0.04
18.796,0.05
18.8,0.05
18.804,0.05
18.808,0.045
18.812,0.06
18.816,0.05
18.82,0.05
18.824,0.045
18.828,0.055
18.832,0.06
18.836,0.07
18.84,0.055
18.844,0.06
18.848,0.06
18.852,0.065
18.856,0.06
18.86,0.055
18.864,0.055
18.868,0.04
18.872,0.075
18.876,0.06
18.88,0.055
18.884,0.06
18.888,0.055
18.892,0.07
18.896,0.06
18.9,0.07
18.904,0.06
18.908,0.05
18.912,0.075
18.916,0.06
18.92,0.05
18.924,0.06
18.928,0.06
18.932,0.06
18.936,0.06
18.94,0.07
18.944,0.065
18.948,0.07
18.952,0.06
18.956,0.07
18.96,0.06
18.964,0.075
18.968,0.075
18.972,0.075
18.976,0.065
18.98,0.08
18.984,0.07
18.988,0.09
18.992,0.065
18.996,0.08
19.0,0.065
19.004,0.08
19.008,0.065
19.012,0.08
19.016,0.08
19.02,0.08
19.024,0.08
19.028,0.09
19.032,0.085
19.036,0.085
19.04,0.075
19.044,0.095
19.048,0.08
19.052,0.095
19.056,0.09
19.06,0.085
19.064,0.09
19.068,0.09
19.072,0.085
19.076,0.1
19.08,0.1
19.084,0.11
19.088,0.11
19.092,0.12
19.096,0.12
19.1,0.12
19.104,0.145
19.108,0.135
19.112,0.145
19.116,0.15
19.12,0.15
19.124,0.17
19.128,0.165
19.132,0.16
19.136,0.18
19.14,0.18
19.144,0.15
19.148,0.13
19.152,0.135
19.156,0.12
19.16,0.115
19.164,0.09
19.168,0.105
19.172,0.08
19.176,0.08
19.18,0.06
19.184,0.07
19.188,0.05
19.192,0.075
19.196,0.06
19.2,0.09
19.204,0.075
19.208,0.065
19.212,0.07
19.216,0.07
19.22,0.075
19.224,0.08
19.228,0.09
19.232,0.075
19.236,0.08
19.24,0.075
19.244,0.09
19.248,0.095
19.252,0.14
19.256,0.19
19.26,0.29
19.264,0.42
19.268,0.615
19.272,0.815
19.276,0.9
19.28,0.825
19.284,0.55
19.288,0.175
19.292,-0.205
19.296,-0.36
19.3,-0.395
19.304,-0.3
19.308,-0.175
19.312,-0.105
19.316,-0.055
19.32,-0.01
19.324,0.04
19.328,0.05
19.332,0.08
19.336,0.075
19.34,0.075
19.344,0.08
19.348,0.06
19.352,0.08
19.356,0.08
19.36,0.085
19.364,0.09
19.368,0.1
19.372,0.1
19.376,0.095
19.38,0.105
19.384,0.12
19.388,0.115
19.392,0.115
19.396,0.12
19.4,0.12
19.404,0.12
19.408,0.125
19.412,0.125
19.416,0.125
19.42,0.12
19.424,0.14
19.428,0.125
19.432,0.135
19.436,0.155
19.44,0.145
19.444,0.16
19.448,0.165
19.452,0.16
19.456,0.175
19.46,0.185
19.464,0.175
19.468,0.175
19.472,0.18
19.476,0.195
19.48,0.195
19.484,0.18
19.488,0.195
19.492,0.205
19.496,0.215
19.5,0.22
19.504,0.215
19.508,0.225
19.512,0.215
19.516,0.22
19.52,0.225
19.524,0.24
19.528,0.24
19.532,0.24
19.536,0.23
19.54,0.21
19.544,0.21
19.548,0.195
19.552,0.195
19.556,0.2
19.56,0.185
19.564,0.16
19.568,0.155
19.572,0.135
19.576,0.12
19.58,0.1
19.584,0.085
19.588,0.065
19.592,0.055
19.596,0.04
19.6,0.035
19.604,0.02
19.608,0.015
19.612,0.01
19.616,0.005
19.62,-0.0
19.624,-0.0
19.628,-0.0
19.632,-0.0
19.636,-0.005
19.64,-0.005
19.644,-0.0
19.648,-0.0
19.652,0.005
19.656,-0.005
19.66,0.005
19.664,-0.0
19.668,-0.0
19.672,0.005
19.676,0.02
19.68,0.01
19.684,0.02
19.688,0.01
19.692,0.02
19.696,0.02
19.7,0.035
19.704,0.035
19.708,0.015
19.712,0.03
19.716,0.035
19.72,0.035
19.724,0.03
19.728,0.035
19.732,0.04
19.736,0.04
19.74,0.05
19.744,0.055
19.748,0.055
19.752,0.045
19.756,0.05
19.76,0.045
19.764,0.04
19.768,0.05
19.772,0.05
19.776,0.06
19.78,0.045
19.784,0.05
19.788,0.055
19.792,0.04
19.796,0.045
19.8,0.05
19.804,0.045
19.808,0.06
19.812,0.05
19.816,0.06
19.82,0.045
19.824,0.04
19.828,0.055
19.832,0.05
19.836,0.06
19.84,0.05
19.844,0.055
19.848,0.05
19.852,0.065
19.856,0.05
19.86,0.055
19.864,0.065
19.868,0.055
19.872,0.065
19.876,0.06
19.88,0.055
19.884,0.06
19.888,0.06
19.892,0.065
19.896,0.06
19.9,0.065
19.904,0.065
19.908,0.065
19.912,0.05
19.916,0.065
19.92,0.06
19.924,0.07
19.928,0.075
19.932,0.08
19.936,0.08
19.94,0.08
19.944,0.09
19.948,0.08
19.952,0.08
19.956,0.09
19.96,0.085
19.964,0.09
19.968,0.085
19.972,0.09
19.976,0.095
19.98,0.095
19.984,0.1
19.988,0.085
19.992,0.1
19.996,0.1
20.0,0.1
20.004,0.095
20.008,0.09
20.012,0.1
20.016,0.08
20.02,0.1
20.024,0.1
20.028,0.1
20.032,0.095
20.036,0.09
20.04,0.12
20.044,0.115
20.048,0.11
20.052,0.115
20.056,0.12
20.06,0.12
20.064,0.12
20.068,0.12
20.072,0.13
20.076,0.135
20.08,0.16
20.084,0.14
20.088,0.15
20.092,0.14
20.096,0.15
20.1,0.14
20.104,0.13
20.108,0.15
20.112,0.12
20.116,0.125
20.12,0.115
20.124,0.115
20.128,0.11
20.132,0.09
20.136,0.08
20.14,0.08
20.144,0.06
20.148,0.055
20.152,0.08
20.156,0.08
20.16,0.065
20.164,0.08
20.168,0.06
20.172,0.08
20.176,0.08
20.18,0.08
20.184,0.07
20.188,0.075
20.192,0.08
20.196,0.08
20.2,0.075
20.204,0.07
20.208,0.12
20.212,0.13
20.216,0.21
20.22,0.32
20.224,0.46
20.228,0.655
20.232,0.815
20.236,0.89
20.24,0.73
20.244,0.47
20.248,0.11
20.252,-0.22
20.256,-0.335
20.26,-0.35
20.264,-0.24
20.268,-0.12
20.272,-0.07
20.276,-0.03
20.28,-0.0
20.284,0.045
20.288,0.07
20.292,0.08
20.296,0.085
20.3,0.095
20.304,0.08
20.308,0.08
20.312,0.095
20.316,0.095
20.32,0.095
20.324,0.105
20.328,0.12
20.332,0.105
20.336,0.1
20.34,0.115
20.344,0.12
20.348,0.11
20.352,0.12
20.356,0.115
20.36,0.125
20.364,0.12
20.368,0.13
20.372,0.12
20.376,0.145
20.38,0.13
20.384,0.13
20.388,0.14
20.392,0.13
20.396,0.15
20.4,0.145
20.404,0.16
20.408,0.155
20.412,0.17
20.416,0.16
20.42,0.16
20.424,0.185
20.428,0.18
20.432,0.175
20.436,0.185
20.44,0.195
20.444,0.195
20.448,0.205
20.452,0.21
20.456,0.205
20.46,0.215
20.464,0.235
20.468,0.215
20.472,0.23
20.476,0.24
20.48,0.22
20.484,0.22
20.488,0.23
20.492,0.21
20.496,0.22
20.5,0.205
20.504,0.22
20.508,0.22
20.512,0.2
20.516,0.2
20.52,0.165
20.524,0.185
20.528,0.14
20.532,0.16
20.536,0.13
20.54,0.095
20.544,0.08
20.548,0.06
20.552,0.06
20.556,0.05
20.56,0.035
20.564,0.035
20.568,0.02
20.572,0.02
20.576,0.015
20.58,-0.0
20.584,0.005
20.588,-0.0
20.592,0.01
20.596,0.005
20.6,0.015
20.604,-0.0
20.608,0.015
20.612,-0.0
20.616,-0.0
20.62,0.02
20.624,0.01
20.628,0.025
20.632,0.01
20.636,0.03
20.64,0.005
20.644,0.035
20.648,0.015
20.652,0.02
20.656,0.035
20.66,0.02
20.664,0.025
20.668,0.025
20.672,0.04
20.676,0.02
20.68,0.04
20.684,0.02
20.688,0.04
20.692,0.04
20.696,0.035
20.7,0.04
20.704,0.055
20.708,0.065
20.712,0.055
20.716,0.05
20.72,0.05
20.724,0.04
20.728,0.045
20.732,0.05
20.736,0.055
20.74,0.05
20.744,0.05
20.748,0.05
20.752,0.05
20.756,0.05
20.76,0.06
20.764,0.05
20.768,0.045
20.772,0.05
20.776,0.06
20.78,0.065
20.784,0.04
20.788,0.04
20.792,0.05
20.796,0.055
20.8,0.04
20.804,0.055
20.808,0.045
20.812,0.05
20.816,0.05
20.82,0.06
20.824,0.06
20.828,0.07
20.832,0.07
20.836,0.07
20.84,0.06
20.844,0.075
20.848,0.075
20.852,0.075
20.856,0.075
20.86,0.08
20.864,0.065
20.868,0.075
20.872,0.08
20.876,0.08
20.88,0.08
20.884,0.07
20.888,0.065
20.892,0.07
20.896,0.08
20.9,0.075
20.904,0.08
20.908,0.08
20.912,0.095
20.916,0.095
20.92,0.095
20.924,0.08
20.928,0.1
20.932,0.09
20.936,0.09
20.94,0.09
20.944,0.08
20.948,0.095
20.952,0.1
20.956,0.1
20.96,0.09
20.964,0.1
20.968,0.095
20.972,0.12
20.976,0.115
20.98,0.115
20.984,0.095
20.988,0.12
20.992,0.12
20.996,0.12
21.0,0.125
21.004,0.145
21.008,0.135
21.012,0.14
21.016,0.125
21.02,0.135
21.024,0.13
21.028,0.11
21.032,0.095
21.036,0.11
21.04,0.11
21.044,0.08
21.048,0.08
21.052,0.085
21.056,0.08
21.06,0.06
21.064,0.045
21.068,0.06
21.072,0.075
21.076,0.06
21.08,0.06
21.084,0.06
21.088,0.06
21.092,0.06
21.096,0.05
21.1,0.065
21.104,0.075
21.108,0.055
21.112,0.07
21.116,0.055
21.12,0.075
21.124,0.07
21.128,0.08
21.132,0.12
21.136,0.16
21.14,0.24
21.144,0.355
21.148,0.545
21.152,0.735
21.156,0.86
21.16,0.86
21.164,0.62
21.168,0.24
21.172,-0.12
21.176,-0.32
21.18,-0.405
21.184,-0.31
21.188,-0.19
21.192,-0.1
21.196,-0.05
21.2,-0.02
21.204,0.035
21.208,0.05
21.212,0.08
21.216,0.075
21.22,0.075
21.224,0.07
21.228,0.08
21.232,0.085
21.236,0.08
21.24,0.085
21.244,0.095
21.248,0.085
21.252,0.1
21.256,0.095
21.26,0.1
21.264,0.1
21.268,0.1
21.272,0.11
21.276,0.105
21.28,0.105
21.284,0.095
21.288,0.1
21.292,0.115
21.296,0.11
21.3,0.125
21.304,0.12
21.308,0.12
21.312,0.13
21.316,0.13
21.32,0.14
21.324,0.14
21.328,0.14
21.332,0.15
21.336,0.155
21.34,0.16
21.344,0.165
21.348,0.16
21.352,0.18
21.356,0.17
21.36,0.17
21.364,0.19
21.368,0.195
21.372,0.195
21.376,0.21
21.38,0.21
21.384,0.205
21.388,0.205
21.392,0.225
21.396,0.22
21.4,0.22
21.404,0.22
21.408,0.22
21.412,0.22
21.416,0.22
21.42,0.22
21.424,0.21
21.428,0.2
21.432,0.19
21.436,0.185
21.44,0.18
21.444,0.16
21.448,0.155
21.452,0.14
21.456,0.12
21.46,0.105
21.464,0.09
21.468,0.08
21.472,0.065
21.476,0.055
21.48,0.04
21.484,0.03
21.488,0.025
21.492,0.02
21.496,0.01
21.5,0.005
21.504,-0.0
21.508,0.005
21.512,-0.005
21.516,-0.01
21.52,-0.01
21.524,-0.0
21.528,-0.01
21.532,-0.0
21.536,-0.01
21.54,0.01
21.544,-0.0
21.548,-0.0
21.552,0.01
21.556,0.01
21.56,0.015
21.564,0.01
21.568,0.02
21.572,0.03
21.576,0.025
21.58,0.03
21.584,0.02
21.588,0.02
21.592,0.025
21.596,0.02
21.6,0.02
21.604,0.03
21.608,0.04
21.612,0.04
21.616,0.03
21.62,0.04
21.624,0.04
21.628,0.045
21.632,0.04
21.636,0.035
21.64,0.04
21.644,0.035
21.648,0.045
21.652,0.04
21.656,0.04
21.66,0.04
21.664,0.035
21.668,0.05
21.672,0.04
21.676,0.05
21.68,0.055
21.684,0.05
21.688,0.045
21.692,0.045
21.696,0.05
21.7,0.04
21.704,0.045
21.708,0.04
21.712,0.055
21.716,0.04
21.72,0.05
21.724,0.045
21.728,0.06
21.732,0.05
21.736,0.05
21.74,0.06
21.744,0.045
21.748,0.05
21.752,0.065
21.756,0.06
21.76,0.055
21.764,0.07
21.768,0.07
21.772,0.075
21.776,0.075
21.78,0.07
21.784,0.065
21.788,0.075
21.792,0.065
21.796,0.08
21.8,0.075
21.804,0.085
21.808,0.08
21.812,0.08
21.816,0.08
21.82,0.08
21.824,0.08
21.828,0.08
21.832,0.085
21.836,0.085
21.84,0.08
21.844,0.08
21.848,0.08
21.852,0.095
21.856,0.09
21.86,0.1
21.864,0.08
21.868,0.095
21.872,0.095
21.876,0.09
21.88,0.09
21.884,0.085
21.888,0.095
21.892,0.09
21.896,0.09
21.9,0.09
21.904,0.105
21.908,0.105
21.912,0.11
21.916,0.12
21.92,0.125
21.924,0.11
21.928,0.11
21.932,0.125
21.936,0.14
21.94,0.145
21.944,0.145
21.948,0.155
21.952,0.14
21.956,0.125
21.96,0.115
21.964,0.12
21.968,0.12
21.972,0.11
21.976,0.105
21.98,0.11
21.984,0.1
21.988,0.1
21.992,0.075
21.996,0.075
22.0,0.065
22.004,0.07
22.008,0.05
22.012,0.07
22.016,0.075
22.02,0.075
22.024,0.065
22.028,0.07
22.032,0.075
22.036,0.08
22.04,0.075
22.044,0.075
22.048,0.08
22.052,0.07
22.056,0.085
22.06,0.07
22.064,0.065
22.068,0.115
22.072,0.135
22.076,0.205
22.08,0.305
22.084,0.47
22.088,0.67
22.092,0.845
22.096,0.95
22.1,0.805
22.104,0.5
22.108,0.115
22.112,-0.24
22.116,-0.36
22.12,-0.375
22.124,-0.26
22.128,-0.155
22.132,-0.085
22.136,-0.03
22.14,0.015
22.144,0.045
22.148,0.08
22.152,0.085
22.156,0.08
22.16,0.075
22.164,0.08
22.168,0.08
22.172,0.1
22.176,0.08
22.18,0.095
22.184,0.08
22.188,0.1
22.192,0.1
22.196,0.1
22.2,0.1
22.204,0.1
22.208,0.1
22.212,0.095
22.216,0.105
22.22,0.125
22.224,0.12
22.228,0.12
22.232,0.14
22.236,0.14
22.24,0.145
22.244,0.135
22.248,0.14
22.252,0.14
22.256,0.14
22.26,0.14
22.264,0.145
22.268,0.145
22.272,0.14
22.276,0.15
22.28,0.165
22.284,0.16
22.288,0.17
22.292,0.18
22.296,0.18
22.3,0.185
22.304,0.19
22.308,0.185
22.312,0.2
22.316,0.215
22.32,0.215
22.324,0.21
22.328,0.24
22.332,0.22
22.336,0.23
22.34,0.225
22.344,0.25
22.348,0.24
22.352,0.23
22.356,0.24
22.36,0.23
22.364,0.215
22.368,0.215
22.372,0.215
22.376,0.195
22.38,0.195
22.384,0.185
22.388,0.155
22.392,0.16
22.396,0.13
22.4,0.115
22.404,0.1
22.408,0.075
22.412,0.08
22.416,0.055
22.42,0.04
22.424,0.03
22.428,0.025
22.432,0.02
22.436,-0.0
22.44,0.015
22.444,0.005
22.448,-0.0
22.452,0.005
22.456,0.005
22.46,-0.0
22.464,-0.0
22.468,0.015
22.472,0.02
22.476,0.01
22.48,0.005
22.484,0.005
22.488,0.01
22.492,0.015
22.496,0.02
22.5,0.02
22.504,0.015
22.508,0.02
22.512,0.02
22.516,0.015
22.52,0.02
22.524,0.02
22.528,0.035
22.532,0.02
22.536,0.025
22.54,0.03
22.544,0.03
22.548,0.04
22.552,0.03
22.556,0.04
22.56,0.045
22.564,0.04
22.568,0.03
22.572,0.025
22.576,0.035
22.58,0.045
22.584,0.025
22.588,0.04
22.592,0.03
22.596,0.035
22.6,0.055
22.604,0.05
22.608,0.04
22.612,0.04
22.616,0.045
22.62,0.05
22.624,0.035
22.628,0.04
22.632,0.055
22.636,0.05
22.64,0.04
22.644,0.05
22.648,0.05
22.652,0.055
22.656,0.06
22.66,0.045
22.664,0.055
22.668,0.06
22.672,0.045
22.676,0.07
22.68,0.06
22.684,0.045
22.688,0.065
22.692,0.055
22.696,0.055
22.7,0.065
22.704,0.06
22.708,0.075
22.712,0.065
22.716,0.065
22.72,0.07
22.724,0.075
22.728,0.08
22.732,0.07
22.736,0.08
22.74,0.07
22.744,0.07
22.748,0.095
22.752,0.1
22.756,0.09
22.76,0.08
22.764,0.085
22.768,0.08
22.772,0.08
22.776,0.08
22.78,0.095
22.784,0.09
22.788,0.09
22.792,0.09
22.796,0.09
22.8,0.09
22.804,0.085
22.808,0.08
22.812,0.085
22.816,0.09
22.82,0.085
22.824,0.085
22.828,0.085
22.832,0.095
22.836,0.095
22.84,0.1
22.844,0.105
22.848,0.1
22.852,0.11
22.856,0.12
22.86,0.12
22.864,0.125
22.868,0.115
22.872,0.13
22.876,0.14
22.88,0.15
22.884,0.15
22.888,0.15
22.892,0.15
22.896,0.125
22.9,0.13
22.904,0.12
22.908,0.12
22.912,0.12
22.916,0.1
22.92,0.095
22.924,0.09
22.928,0.08
22.932,0.065
22.936,0.07
22.94,0.06
22.944,0.06
22.948,0.06
22.952,0.065
22.956,0.08
22.96,0.055
22.964,0.09
22.968,0.08
22.972,0.08
22.976,0.075
22.98,0.08
22.984,0.08
22.988,0.095
22.992,0.08
22.996,0.075
23.0,0.08
23.004,0.08
23.008,0.115
23.012,0.155
23.016,0.2
23.02,0.32
23.024,0.46
23.028,0.68
23.032,0.86
23.036,0.95
23.04,0.815
23.044,0.53
23.048,0.125
23.052,-0.23
23.056,-0.36
23.06,-0.38
23.064,-0.265
23.068,-0.165
23.072,-0.1
23.076,-0.03
23.08,0.005
23.084,0.04
23.088,0.07
23.092,0.06
23.096,0.08
23.1,0.075
23.104,0.07
23.108,0.08
23.112,0.09
23.116,0.095
23.12,0.085
23.124,0.085
23.128,0.1
23.132,0.11
23.136,0.105
23.14,0.095
23.144,0.105
23.148,0.12
23.152,0.11
23.156,0.115
23.16,0.12
23.164,0.125
23.168,0.12
23.172,0.12
23.176,0.12
23.18,0.12
23.184,0.135
23.188,0.125
23.192,0.14
23.196,0.145
23.2,0.145
23.204,0.13
23.208,0.14
23.212,0.16
23.216,0.15
23.22,0.165
23.224,0.165
23.228,0.165
23.232,0.16
23.236,0.175
23.24,0.195
23.244,0.205
23.248,0.195
23.252,0.205
23.256,0.2
23.26,0.23
23.264,0.235
23.268,0.225
23.272,0.22
23.276,0.23
23.28,0.24
23.284,0.24
23.288,0.235
23.292,0.24
23.296,0.24
23.3,0.225
23.304,0.22
23.308,0.21
23.312,0.195
23.316,0.195
23.32,0.185
23.324,0.17
23.328,0.17
23.332,0.145
23.336,0.125
23.34,0.105
23.344,0.105
23.348,0.09
23.352,0.08
23.356,0.06
23.36,0.05
23.364,0.04
23.368,0.025
23.372,0.025
23.376,0.015
23.38,0.02
23.384,0.015
23.388,0.005
23.392,-0.005
23.396,0.015
23.4,-0.0
23.404,-0.0
23.408,-0.0
23.412,-0.0
23.416,-0.0
23.42,-0.0
23.424,0.005
23.428,-0.0
23.432,-0.0
23.436,0.005
23.44,0.005
23.444,0.015
23.448,0.015
23.452,0.02
23.456,0.03
23.46,0.02
23.464,0.015
23.468,0.02
23.472,0.02
23.476,0.02
23.48,0.035
23.484,0.03
23.488,0.04
23.492,0.03
23.496,0.035
23.5,0.045
23.504,0.025
23.508,0.035
23.512,0.035
23.516,0.03
23.52,0.04
23.524,0.045
23.528,0.035
23.532,0.04
23.536,0.04
23.54,0.045
23.544,0.04
23.548,0.04
23.552,0.045
23.556,0.045
23.56,0.04
23.564,0.06
23.568,0.055
23.572,0.04
23.576,0.045
23.58,0.04
23.584,0.045
23.588,0.05
23.592,0.06
23.596,0.055
23.6,0.06
23.604,0.05
23.608,0.05
23.612,0.06
23.616,0.06
23.62,0.055
23.624,0.065
23.628,0.065
23.632,0.07
23.636,0.065
23.64,0.06
23.644,0.065
23.648,0.08
23.652,0.08
23.656,0.08
23.66,0.07
23.664,0.065
23.668,0.065
23.672,0.065
23.676,0.075
23.68,0.075
23.684,0.075
23.688,0.065
23.692,0.08
23.696,0.08
23.7,0.08
23.704,0.08
23.708,0.085
23.712,0.08
23.716,0.08
23.72,0.085
23.724,0.08
23.728,0.08
23.732,0.08
23.736,0.08
23.74,0.09
23.744,0.085
23.748,0.085
23.752,0.08
23.756,0.085
23.76,0.08
23.764,0.08
23.768,0.09
23.772,0.085
23.776,0.085
23.78,0.09
23.784,0.08
23.788,0.095
23.792,0.1
23.796,0.1
23.8,0.11
23.804,0.11
23.808,0.105
23.812,0.115
23.816,0.115
23.82,0.125
23.824,0.135
23.828,0.135
23.832,0.14
23.836,0.145
23.84,0.13
23.844,0.14
23.848,0.13
23.852,0.125
23.856,0.12
23.86,0.105
23.864,0.115
23.868,0.085
23.872,0.09
23.876,0.1
23.88,0.085
23.884,0.075
23.888,0.06
23.892,0.06
23.896,0.07
23.9,0.075
23.904,0.08
23.908,0.075
23.912,0.08
23.916,0.075
23.92,0.1
23.924,0.1
23.928,0.09
23.932,0.075
23.936,0.095
23.94,0.09
23.944,0.08
23.948,0.08
23.952,0.085
23.956,0.115
23.96,0.15
23.964,0.21
23.968,0.305
23.972,0.475
23.976,0.68
23.98,0.87
23.984,0.95
23.988,0.78
23.992,0.475
23.996,0.105
24.0,-0.24
24.004,-0.38
24.008,-0.375
24.012,-0.26
24.016,-0.16
24.02,-0.085
24.024,-0.04
24.028,0.005
24.032,0.045
24.036,0.075
24.04,0.09
24.044,0.08
24.048,0.075
24.052,0.075
24.056,0.085
24.06,0.08
24.064,0.08
24.068,0.09
24.072,0.1
24.076,0.09
24.08,0.095
24.084,0.1
24.088,0.095
24.092,0.115
24.096,0.115
24.1,0.12
24.104,0.11
24.108,0.115
24.112,0.105
24.116,0.125
24.12,0.135
24.124,0.115
24.128,0.115
24.132,0.13
24.136,0.135
24.14,0.135
24.144,0.125
24.148,0.14
24.152,0.155
24.156,0.15
24.16,0.16
24.164,0.165
24.168,0.17
24.172,0.165
24.176,0.185
24.18,0.19
24.184,0.185
24.188,0.2
24.192,0.205
24.196,0.205
24.2,0.205
24.204,0.21
24.208,0.22
24.212,0.225
24.216,0.23
24.22,0.24
24.224,0.24
24.228,0.23
24.232,0.24
24.236,0.24
24.24,0.23
24.244,0.24
24.248,0.22
24.252,0.22
24.256,0.21
24.26,0.205
24.264,0.2
24.268,0.2
24.272,0.175
24.276,0.165
24.28,0.14
24.284,0.14
24.288,0.125
24.292,0.105
24.296,0.085
24.3,0.08
24.304,0.055
24.308,0.05
24.312,0.035
24.316,0.02
24.32,0.025
24.324,0.02
24.328,0.015
24.332,0.02
24.336,0.01
24.34,-0.0
24.344,0.005
24.348,0.01
24.352,0.015
24.356,-0.0
24.36,0.005
24.364,-0.0
24.368,-0.0
24.372,0.005
24.376,-0.0
24.38,0.005
24.384,0.015
24.388,0.015
24.392,-0.0
24.396,0.02
24.4,0.02
24.404,0.02
24.408,0.02
24.412,0.02
24.416,0.015
24.42,0.025
24.424,0.02
24.428,0.02
24.432,0.025
24.436,0.02
24.44,0.025
24.444,0.03
24.448,0.035
24.452,0.035
24.456,0.025
24.46,0.045
24.464,0.04
24.468,0.05
24.472,0.03
24.476,0.04
24.48,0.04
24.484,0.05
24.488,0.04
24.492,0.055
24.496,0.045
24.5,0.045
24.504,0.06
24.508,0.045
24.512,0.04
24.516,0.04
24.52,0.055
24.524,0.05
24.528,0.05
24.532,0.045
24.536,0.05
24.54,0.06
24.544,0.06
24.548,0.06
24.552,0.055
24.556,0.06
24.56,0.065
24.564,0.075
24.568,0.06
24.572,0.055
24.576,0.06
24.58,0.07
24.584,0.06
24.588,0.075
24.592,0.065
24.596,0.08
24.6,0.06
24.604,0.08
24.608,0.065
24.612,0.075
24.616,0.08
24.62,0.065
24.624,0.07
24.628,0.04
24.632,0.075
24.636,0.08
24.64,0.075
24.644,0.065
24.648,0.08
24.652,0.08
24.656,0.08
24.66,0.08
24.664,0.08
24.668,0.085
24.672,0.08
24.676,0.085
24.68,0.08
24.684,0.08
24.688,0.085
24.692,0.085
24.696,0.08
24.7,0.08
24.704,0.095
24.708,0.075
24.712,0.085
24.716,0.085
24.72,0.08
24.724,0.08
24.728,0.08
24.732,0.095
24.736,0.08
24.74,0.1
24.744,0.1
24.748,0.1
24.752,0.11
24.756,0.1
24.76,0.11
24.764,0.125
24.768,0.125
24.772,0.14
24.776,0.135
24.78,0.155
24.784,0.14
24.788,0.135
24.792,0.13
24.796,0.14
24.8,0.13
24.804,0.115
24.808,0.11
24.812,0.11
24.816,0.085
24.82,0.1
24.824,0.085
24.828,0.08
24.832,0.075
24.836,0.08
24.84,0.07
24.844,0.085
24.848,0.08
24.852,0.085
24.856,0.075
24.86,0.075
24.864,0.075
24.868,0.08
24.872,0.09
24.876,0.1
24.88,0.09
24.884,0.085
24.888,0.08
24.892,0.09
24.896,0.09
24.9,0.125
24.904,0.16
24.908,0.235
24.912,0.335
24.916,0.51
24.92,0.725
24.924,0.87
24.928,0.915
24.932,0.695
24.936,0.38
24.94,-0.0
24.944,-0.265
24.948,-0.37
24.952,-0.34
24.956,-0.23
24.96,-0.135
24.964,-0.075
24.968,-0.02
24.972,0.015
24.976,0.045
24.98,0.06
24.984,0.07
24.988,0.075
24.992,0.065
24.996,0.08
25.0,0.08
25.004,0.08
25.008,0.1
25.012,0.095
25.016,0.085
25.02,0.09
25.024,0.11
25.028,0.115
25.032,0.1
25.036,0.1
25.04,0.105
25.044,0.105
25.048,0.115
25.052,0.12
25.056,0.105
25.06,0.115
25.064,0.125
25.068,0.12
25.072,0.115
25.076,0.135
25.08,0.125
25.084,0.14
25.088,0.14
25.092,0.14
25.096,0.15
25.1,0.15
25.104,0.155
25.108,0.175
25.112,0.18
25.116,0.165
25.12,0.185
25.124,0.185
25.128,0.185
25.132,0.2
25.136,0.205
25.14,0.22
25.144,0.22
25.148,0.23
25.152,0.22
25.156,0.23
25.16,0.23
25.164,0.25
25.168,0.24
25.172,0.23
25.176,0.245
25.18,0.24
25.184,0.24
25.188,0.235
25.192,0.22
25.196,0.22
25.2,0.22
25.204,0.215
25.208,0.195
25.212,0.185
25.216,0.18
25.22,0.155
25.224,0.145
25.228,0.13
25.232,0.1
25.236,0.095
25.24,0.08
25.244,0.06
25.248,0.055
25.252,0.04
25.256,0.03
25.26,0.02
25.264,0.02
25.268,0.01
25.272,-0.0
25.276,0.015
25.28,-0.0
25.284,-0.0
25.288,0.01
25.292,0.005
25.296,-0.0
25.3,-0.0
25.304,-0.0
25.308,-0.0
25.312,0.005
25.316,-0.0
25.32,0.015
25.324,0.01
25.328,0.015
25.332,0.02
25.336,0.005
25.34,0.015
25.344,0.01
25.348,0.01
25.352,-0.0
25.356,0.02
25.36,0.02
25.364,0.03
25.368,0.025
25.372,0.02
25.376,0.04
25.38,0.03
25.384,0.02
25.388,0.04
25.392,0.035
25.396,0.04
25.4,0.035
25.404,0.045
25.408,0.04
25.412,0.03
25.416,0.035
25.42,0.045
25.424,0.045
25.428,0.035
25.432,0.04
25.436,0.045
25.44,0.045
25.444,0.06
25.448,0.06
25.452,0.06
25.456,0.065
25.46,0.065
25.464,0.07
25.468,0.06
25.472,0.05
25.476,0.06
25.48,0.06
25.484,0.07
25.488,0.08
25.492,0.06
25.496,0.075
25.5,0.065
25.504,0.06
25.508,0.06
25.512,0.06
25.516,0.065
25.52,0.055
25.524,0.065
25.528,0.07
25.532,0.055
25.536,0.07
25.54,0.06
25.544,0.06
25.548,0.065
25.552,0.08
25.556,0.075
25.56,0.06
25.564,0.075
25.568,0.075
25.572,0.07
25.576,0.07
25.58,0.065
25.584,0.065
25.588,0.08
25.592,0.06
25.596,0.06
25.6,0.065
25.604,0.06
25.608,0.07
25.612,0.065
25.616,0.065
25.62,0.07
25.624,0.08
25.628,0.065
25.632,0.08
25.636,0.09
25.64,0.085
25.644,0.09
25.648,0.1
25.652,0.09
25.656,0.1
25.66,0.11
25.664,0.1
25.668,0.11
25.672,0.145
25.676,0.14
25.68,0.14
25.684,0.13
25.688,0.125
25.692,0.13
25.696,0.12
25.7,0.125
25.704,0.105
25.708,0.1
25.712,0.1
25.716,0.095
25.72,0.08
25.724,0.085
25.728,0.08
25.732,0.075
25.736,0.06
25.74,0.065
25.744,0.07
25.748,0.08
25.752,0.07
25.756,0.09
25.76,0.085
25.764,0.095
25.768,0.085
25.772,0.085
25.776,0.075
25.78,0.09
25.784,0.08
25.788,0.08
25.792,0.08
25.796,0.08
25.8,0.09
25.804,0.14
25.808,0.175
25.812,0.245
25.816,0.37
25.82,0.54
25.824,0.74
25.828,0.86
25.832,0.87
25.836,0.625
25.84,0.3
25.844,-0.075
25.848,-0.285
25.852,-0.38
25.856,-0.31
25.86,-0.18
25.864,-0.095
25.868,-0.05
25.872,-0.02
25.876,0.015
25.88,0.06
25.884,0.075
25.888,0.075
25.892,0.08
25.896,0.06
25.9,0.07
25.904,0.065
25.908,0.08
25.912,0.07
25.916,0.08
25.92,0.085
25.924,0.1
25.928,0.075
25.932,0.08
25.936,0.09
25.94,0.095
25.944,0.1
25.948,0.095
25.952,0.115
25.956,0.105
25.96,0.11
25.964,0.105
25.968,0.12
25.972,0.11
25.976,0.105
25.98,0.12
25.984,0.125
25.988,0.13
25.992,0.135
25.996,0.135
26.0,0.135
26.004,0.145
26.008,0.16
26.012,0.15
26.016,0.16
26.02,0.17
26.024,0.18
26.028,0.19
26.032,0.165
26.036,0.185
26.04,0.19
26.044,0.205
26.048,0.21
26.052,0.22
26.056,0.235
26.06,0.23
26.064,0.225
26.068,0.25
26.072,0.22
26.076,0.23
26.08,0.245
26.084,0.225
26.088,0.225
26.092,0.23
26.096,0.2
26.1,0.205
26.104,0.2
26.108,0.195
26.112,0.185
26.116,0.165
26.12,0.16
26.124,0.14
26.128,0.115
26.132,0.11
26.136,0.08
26.14,0.085
26.144,0.06
26.148,0.055
26.152,0.03
26.156,0.035
26.16,0.025
26.164,0.03
26.168,0.005
26.172,0.01
26.176,-0.005
26.18,-0.0
26.184,-0.0
26.188,-0.01
26.192,-0.0
26.196,-0.0
26.2,-0.0
26.204,-0.0
26.208,0.01
26.212,-0.0
26.216,-0.01
26.22,0.005
26.224,-0.0
26.228,0.015
26.232,-0.0
26.236,-0.0
26.24,0.015
26.244,-0.0
26.248,-0.0
26.252,0.015
26.256,0.01
26.26,0.005
26.264,0.025
26.268,0.02
26.272,0.02
26.276,0.005
26.28,0.03
26.284,0.04
26.288,0.03
26.292,0.035
26.296,0.04
26.3,0.04
26.304,0.04
26.308,0.04
26.312,0.045
26.316,0.035
26.32,0.06
26.324,0.055
26.328,0.04
26.332,0.04
26.336,0.045
26.34,0.04
26.344,0.04
26.348,0.04
26.352,0.055
26.356,0.045
26.36,0.065
26.364,0.05
26.368,0.045
26.372,0.05
26.376,0.06
26.38,0.045
26.384,0.065
26.388,0.055
26.392,0.06
26.396,0.06
26.4,0.055
26.404,0.055
26.408,0.07
26.412,0.06
26.416,0.06
26.42,0.07
26.424,0.08
26.428,0.06
26.432,0.06
26.436,0.065
26.44,0.06
26.444,0.075
26.448,0.06
26.452,0.06
26.456,0.055
26.46,0.06
26.464,0.065
26.468,0.065
26.472,0.065
26.476,0.065
26.48,0.08
26.484,0.08
26.488,0.075
26.492,0.08
26.496,0.075
26.5,0.075
26.504,0.07
26.508,0.08
26.512,0.08
26.516,0.085
26.52,0.075
26.524,0.1
26.528,0.09
26.532,0.1
26.536,0.1
26.54,0.105
26.544,0.105
26.548,0.085
26.552,0.1
26.556,0.12
26.56,0.12
26.564,0.13
26.568,0.135
26.572,0.13
26.576,0.135
26.58,0.12
26.584,0.125
26.588,0.12
26.592,0.12
26.596,0.105
26.6,0.1
26.604,0.095
26.608,0.095
26.612,0.085
26.616,0.08
26.62,0.085
26.624,0.08
26.628,0.06
26.632,0.075
26.636,0.07
26.64,0.06
26.644,0.065
26.648,0.07
26.652,0.07
26.656,0.07
26.66,0.08
26.664,0.075
26.668,0.075
26.672,0.08
26.676,0.08
26.68,0.075
26.684,0.06
26.688,0.075
26.692,0.135
26.696,0.16
26.7,0.23
26.704,0.34
26.708,0.525
26.712,0.74
26.716,0.9
26.72,0.96
26.724,0.725
26.728,0.39
26.732,-0.0
26.736,-0.28
26.74,-0.395
26.744,-0.355
26.748,-0.22
26.752,-0.135
26.756,-0.07
26.76,-0.02
26.764,0.02
26.768,0.04
26.772,0.075
26.776,0.06
26.78,0.07
26.784,0.06
26.788,0.07
26.792,0.065
26.796,0.08
26.8,0.08
26.804,0.085
26.808,0.085
26.812,0.09
26.816,0.1
26.82,0.105
26.824,0.1
26.828,0.1
26.832,0.11
26.836,0.11
26.84,0.105
26.844,0.115
26.848,0.115
26.852,0.12
26.856,0.12
26.86,0.115
26.864,0.12
26.868,0.125
26.872,0.125
26.876,0.13
26.88,0.135
26.884,0.14
26.888,0.14
26.892,0.16
26.896,0.16
26.9,0.155
26.904,0.16
26.908,0.165
26.912,0.175
26.916,0.175
26.92,0.18
26.924,0.18
26.928,0.2
26.932,0.205
26.936,0.215
26.94,0.22
26.944,0.24
26.948,0.225
26.952,0.225
26.956,0.24
26.96,0.225
26.964,0.245
26.968,0.24
26.972,0.24
26.976,0.24
26.98,0.23
26.984,0.225
26.988,0.22
26.992,0.22
26.996,0.215
27.0,0.2
27.004,0.18
27.008,0.18
27.012,0.16
27.016,0.145
27.02,0.14
27.024,0.105
27.028,0.085
27.032,0.085
27.036,0.055
27.04,0.06
27.044,0.04
27.048,0.03
27.052,0.01
27.056,0.02
27.06,-0.0
27.064,0.015
27.068,-0.0
27.072,-0.015
27.076,-0.0
27.08,-0.0
27.084,-0.0
27.088,0.005
27.092,-0.0
27.096,-0.0
27.1,-0.0
27.104,0.01
27.108,-0.0
27.112,-0.0
27.116,0.005
27.12,0.02
27.124,0.02
27.128,0.015
27.132,0.015
27.136,0.015
27.14,0.02
27.144,0.015
27.148,0.025
27.152,0.01
27.156,0.02
27.16,0.02
27.164,0.025
27.168,0.035
27.172,0.025
27.176,0.02
27.18,0.03
27.184,0.04
27.188,0.04
27.192,0.035
27.196,0.04
27.2,0.04
27.204,0.04
27.208,0.035
27.212,0.04
27.216,0.045
27.22,0.05
27.224,0.05
27.228,0.05
27.232,0.04
27.236,0.035
27.24,0.04
27.244,0.05
27.248,0.045
27.252,0.04
27.256,0.04
27.26,0.06
27.264,0.06
27.268,0.055
27.272,0.06
27.276,0.06
27.28,0.065
27.284,0.06
27.288,0.06
27.292,0.06
27.296,0.06
27.3,0.06
27.304,0.06
27.308,0.06
27.312,0.05
27.316,0.06
27.32,0.06
27.324,0.08
27.328,0.08
27.332,0.08
27.336,0.065
27.34,0.08
27.344,0.075
27.348,0.07
27.352,0.06
27.356,0.07
27.36,0.075
27.364,0.08
27.368,0.07
27.372,0.08
27.376,0.075
27.38,0.085
27.384,0.075
27.388,0.08
27.392,0.09
27.396,0.08
27.4,0.07
27.404,0.07
27.408,0.085
27.412,0.085
27.416,0.085
27.42,0.085
27.424,0.08
27.428,0.095
27.432,0.095
27.436,0.1
27.44,0.1
27.444,0.1
27.448,0.11
27.452,0.125
27.456,0.125
27.46,0.135
27.464,0.13
27.468,0.14
27.472,0.13
27.476,0.135
27.48,0.125
27.484,0.125
27.488,0.115
27.492,0.105
27.496,0.1
27.5,0.095
27.504,0.095
27.508,0.09
27.512,0.09
27.516,0.065
27.52,0.07
27.524,0.06
27.528,0.06
27.532,0.055
27.536,0.08
27.54,0.07
27.544,0.07
27.548,0.075
27.552,0.08
27.556,0.08
27.56,0.08
27.564,0.085
27.568,0.085
27.572,0.1
27.576,0.1
27.58,0.095
27.584,0.08
27.588,0.115
27.592,0.155
27.596,0.22
27.6,0.3
27.604,0.46
27.608,0.67
27.612,0.86
27.616,0.935
27.62,0.84
27.624,0.545
27.628,0.135
27.632,-0.22
27.636,-0.38
27.64,-0.41
27.644,-0.28
27.648,-0.175
27.652,-0.09
27.656,-0.045
27.66,-0.01
27.664,0.04
27.668,0.06
27.672,0.06
27.676,0.07
27.68,0.06
27.684,0.075
27.688,0.07
27.692,0.09
27.696,0.08
27.7,0.08
27.704,0.095
27.708,0.1
27.712,0.095
27.716,0.1
27.72,0.105
27.724,0.095
27.728,0.115
27.732,0.11
27.736,0.115
27.74,0.115
27.744,0.12
27.748,0.12
27.752,0.125
27.756,0.11
27.76,0.12
27.764,0.125
27.768,0.135
27.772,0.135
27.776,0.14
27.78,0.14
27.784,0.135
27.788,0.155
27.792,0.165
27.796,0.16
27.8,0.155
27.804,0.165
27.808,0.18
27.812,0.18
27.816,0.18
27.82,0.19
27.824,0.2
27.828,0.2
27.832,0.2
27.836,0.21
27.84,0.215
27.844,0.23
27.848,0.22
27.852,0.23
27.856,0.24
27.86,0.23
27.864,0.235
27.868,0.24
27.872,0.23
27.876,0.24
27.88,0.22
27.884,0.235
27.888,0.22
27.892,0.22
27.896,0.215
27.9,0.19
27.904,0.195
27.908,0.16
27.912,0.155
27.916,0.125
27.92,0.13
27.924,0.095
27.928,0.075
27.932,0.07
27.936,0.06
27.94,0.035
27.944,0.025
27.948,0.04
27.952,0.015
27.956,0.01
27.96,-0.0
27.964,-0.005
27.968,-0.0
27.972,-0.0
27.976,0.005
27.98,-0.0
27.984,0.005
27.988,0.01
27.992,0.005
27.996,-0.0
28.0,-0.0
28.004,-0.0
28.008,0.02
28.012,-0.0
28.016,0.015
28.02,0.02
28.024,0.02
28.028,0.02
28.032,0.005
28.036,0.01
28.04,0.02
28.044,0.02
28.048,0.025
28.052,0.03
28.056,0.02
28.06,0.015
28.064,0.025
28.068,0.035
28.072,0.035
28.076,0.035
28.08,0.035
28.084,0.05
28.088,0.035
28.092,0.02
28.096,0.025
28.1,0.03
28.104,0.04
28.108,0.04
28.112,0.04
28.116,0.03
28.12,0.045
28.124,0.04
28.128,0.045
28.132,0.05
28.136,0.05
28.14,0.045
28.144,0.045
28.148,0.055
28.152,0.06
28.156,0.055
28.16,0.055
28.164,0.05
28.168,0.055
28.172,0.05
28.176,0.05
28.18,0.06
28.184,0.06
28.188,0.06
28.192,0.07
28.196,0.07
28.2,0.07
28.204,0.07
28.208,0.065
28.212,0.07
28.216,0.06
28.22,0.08
28.224,0.06
28.228,0.08
28.232,0.075
28.236,0.085
28.24,0.075
28.244,0.06
28.248,0.07
28.252,0.07
28.256,0.065
28.26,0.065
28.264,0.07
28.268,0.08
28.272,0.075
28.276,0.07
28.28,0.07
28.284,0.075
28.288,0.08
28.292,0.08
28.296,0.075
28.3,0.075
28.304,0.075
28.308,0.085
28.312,0.09
28.316,0.08
28.32,0.09
28.324,0.1
28.328,0.09
28.332,0.085
28.336,0.1
28.34,0.11
28.344,0.105
28.348,0.1
28.352,0.11
28.356,0.1
28.36,0.11
28.364,0.14
28.368,0.13
28.372,0.135
28.376,0.155
28.38,0.13
28.384,0.125
28.388,0.125
28.392,0.115
28.396,0.13
28.4,0.105
28.404,0.1
28.408,0.1
28.412,0.095
28.416,0.09
28.42,0.085
28.424,0.09
28.428,0.07
28.432,0.06
28.436,0.06
28.44,0.06
28.444,0.075
28.448,0.08
28.452,0.075
28.456,0.06
28.46,0.08
28.464,0.08
28.468,0.075
28.472,0.07
28.476,0.08
28.48,0.09
28.484,0.09
28.488,0.08
28.492,0.08
28.496,0.08
28.5,0.12
28.504,0.14
28.508,0.22
28.512,0.32
28.516,0.46
28.52,0.68
28.524,0.875
28.528,0.94
28.532,0.795
28.536,0.495
28.54,0.11
28.544,-0.23
28.548,-0.37
28.552,-0.38
28.556,-0.27
28.56,-0.15
28.564,-0.1
28.568,-0.035
28.572,-0.0
28.576,0.035
28.58,0.07
28.584,0.07
28.588,0.075
28.592,0.06
28.596,0.065
28.6,0.08
28.604,0.075
28.608,0.08
28.612,0.08
28.616,0.09
28.62,0.1
28.624,0.095
28.628,0.1
28.632,0.095
28.636,0.1
28.64,0.105
28.644,0.1
28.648,0.12
28.652,0.12
28.656,0.115
28.66,0.115
28.664,0.125
28.668,0.12
28.672,0.11
28.676,0.12
28.68,0.125
28.684,0.12
28.688,0.14
28.692,0.14
28.696,0.14
28.7,0.145
28.704,0.155
28.708,0.14
28.712,0.165
28.716,0.16
28.72,0.175
28.724,0.175
28.728,0.18
28.732,0.18
28.736,0.2
28.74,0.2
28.744,0.205
28.748,0.21
28.752,0.225
28.756,0.22
28.76,0.235
28.764,0.24
28.768,0.24
28.772,0.235
28.776,0.235
28.78,0.23
28.784,0.24
28.788,0.23
28.792,0.22
28.796,0.215
28.8,0.205
28.804,0.205
28.808,0.2
28.812,0.195
28.816,0.19
28.82,0.17
28.824,0.16
28.828,0.13
28.832,0.115
28.836,0.1
28.84,0.085
28.844,0.07
28.848,0.065
28.852,0.045
28.856,0.03
28.86,0.02
28.864,0.015
28.868,0.01
28.872,0.005
28.876,-0.0
28.88,-0.0
28.884,-0.0
28.888,0.005
28.892,0.005
28.896,-0.0
28.9,-0.0
28.904,-0.0
28.908,-0.0
28.912,0.005
28.916,0.02
28.92,0.02
28.924,0.01
28.928,0.02
28.932,0.015
28.936,0.005
28.94,0.01
28.944,0.02
28.948,0.025
28.952,0.03
28.956,0.035
28.96,0.04
28.964,0.03
28.968,0.04
28.972,0.035
28.976,0.025
28.98,0.02
28.984,0.03
28.988,0.02
28.992,0.02
28.996,0.035
29.0,0.03
29.004,0.035
29.008,0.03
29.012,0.03
29.016,0.035
29.02,0.035
29.024,0.03
29.028,0.04
29.032,0.045
29.036,0.045
29.04,0.045
29.044,0.05
29.048,0.06
29.052,0.04
29.056,0.045
29.06,0.055
29.064,0.05
29.068,0.05
29.072,0.04
29.076,0.06
29.08,0.06
29.084,0.055
29.088,0.06
29.092,0.06
29.096,0.06
29.1,0.06
29.104,0.05
29.108,0.06
29.112,0.055
29.116,0.06
29.12,0.06
29.124,0.07
29.128,0.07
29.132,0.06
29.136,0.07
29.14,0.075
29.144,0.08
29.148,0.075
29.152,0.07
29.156,0.08
29.16,0.07
29.164,0.08
29.168,0.075
29.172,0.08
29.176,0.065
29.18,0.08
29.184,0.075
29.188,0.08
29.192,0.08
29.196,0.08
29.2,0.07
29.204,0.09
29.208,0.07
29.212,0.085
29.216,0.065
29.22,0.08
29.224,0.075
29.228,0.07
29.232,0.07
29.236,0.08
29.24,0.085
29.244,0.105
29.248,0.1
29.252,0.095
29.256,0.09
29.26,0.105
29.264,0.12
29.268,0.105
29.272,0.125
29.276,0.14
29.28,0.14
29.284,0.125
29.288,0.14
29.292,0.135
29.296,0.115
29.3,0.12
29.304,0.11
29.308,0.115
29.312,0.095
29.316,0.105
29.32,0.09
29.324,0.1
29.328,0.08
29.332,0.08
29.336,0.08
29.34,0.07
29.344,0.075
29.348,0.07
29.352,0.06
29.356,0.07
29.36,0.075
29.364,0.08
29.368,0.07
29.372,0.06
29.376,0.06
29.38,0.065
29.384,0.07
29.388,0.075
29.392,0.08
29.396,0.08
29.4,0.07
29.404,0.1
29.408,0.135
29.412,0.18
29.416,0.26
29.42,0.4
29.424,0.605
29.428,0.815
29.432,0.91
29.436,0.895
29.44,0.64
29.444,0.245
29.448,-0.145
29.452,-0.35
29.456,-0.395
29.46,-0.32
29.464,-0.205
29.468,-0.12
29.472,-0.065
29.476,-0.02
29.48,0.025
29.484,0.05
29.488,0.08
29.492,0.07
29.496,0.06
29.5,0.06
29.504,0.08
29.508,0.08
29.512,0.07
29.516,0.085
29.52,0.1
29.524,0.08
29.528,0.09
29.532,0.1
29.536,0.1
29.54,0.095
29.544,0.1
29.548,0.105
29.552,0.1
29.556,0.095
29.56,0.1
29.564,0.12
29.568,0.115
29.572,0.115
29.576,0.125
29.58,0.12
29.584,0.125
29.588,0.13
29.592,0.13
29.596,0.13
29.6,0.14
29.604,0.145
29.608,0.16
29.612,0.155
29.616,0.16
29.62,0.165
29.624,0.17
29.628,0.18
29.632,0.18
29.636,0.19
29.64,0.2
29.644,0.2
29.648,0.205
29.652,0.2
29.656,0.22
29.66,0.225
29.664,0.23
29.668,0.23
29.672,0.24
29.676,0.21
29.68,0.22
29.684,0.23
29.688,0.23
29.692,0.215
29.696,0.235
29.7,0.22
29.704,0.21
29.708,0.215
29.712,0.2
29.716,0.2
29.72,0.185
29.724,0.165
29.728,0.165
29.732,0.14
29.736,0.12
29.74,0.115
29.744,0.1
29.748,0.075
29.752,0.06
29.756,0.04
29.76,0.02
29.764,0.03
29.768,0.025
29.772,0.02
29.776,0.015
29.78,-0.0
29.784,-0.005
29.788,-0.0
29.792,0.005
29.796,-0.0
29.8,-0.0
29.804,-0.0
29.808,0.01
29.812,0.005
29.816,0.01
29.82,0.005
29.824,0.005
29.828,0.01
29.832,0.005
29.836,0.015
29.84,0.015
29.844,0.02
29.848,0.015
29.852,0.015
29.856,0.015
29.86,0.02
29.864,0.02
29.868,0.025
29.872,0.02
29.876,0.025
29.88,0.025
29.884,0.03
29.888,0.03
29.892,0.03
29.896,0.035
29.9,0.04
29.904,0.04
29.908,0.035
29.912,0.035
29.916,0.04
29.92,0.035
29.924,0.03
29.928,0.04
29.932,0.035
29.936,0.045
29.94,0.045
29.944,0.03
29.948,0.05
29.952,0.045
29.956,0.035
29.96,0.04
29.964,0.04
29.968,0.05
29.972,0.05
29.976,0.04
29.98,0.055
29.984,0.055
29.988,0.06
29.992,0.06
29.996,0.065
30.0,0.055
30.004,0.06
30.008,0.065
30.012,0.07
30.016,0.065
30.02,0.065
30.024,0.06
30.028,0.07
30.032,0.065
30.036,0.075
30.04,0.06
30.044,0.06
30.048,0.07
30.052,0.065
30.056,0.06
30.06,0.065
30.064,0.075
30.068,0.075
30.072,0.075
30.076,0.07
30.08,0.065
30.084,0.07
30.088,0.065
30.092,0.07
30.096,0.08
30.1,0.08
30.104,0.075
30.108,0.085
30.112,0.095
30.116,0.1
30.12,0.1
30.124,0.115
30.128,0.115
30.132,0.11
30.136,0.11
30.14,0.12
30.144,0.125
30.148,0.14
30.152,0.125
30.156,0.125
30.16,0.13
30.164,0.12
30.168,0.125
30.172,0.12
30.176,0.11
30.18,0.1
30.184,0.1
30.188,0.095
30.192,0.1
30.196,0.08
30.2,0.08
30.204,0.06
30.208,0.06
30.212,0.05
30.216,0.06
30.22,0.06
30.224,0.06
30.228,0.06
30.232,0.06
30.236,0.055
30.24,0.06
30.244,0.07
30.248,0.075
30.252,0.075
30.256,0.07
30.26,0.08
30.264,0.08
30.268,0.08
30.272,0.075
30.276,0.1
30.28,0.125
30.284,0.185
30.288,0.29
30.292,0.42
30.296,0.61
30.3,0.8
30.304,0.89
30.308,0.845
30.312,0.57
30.316,0.2
30.32,-0.175
30.324,-0.335
30.328,-0.38
30.332,-0.295
30.336,-0.175
30.34,-0.1
30.344,-0.055
30.348,-0.0
30.352,0.04
30.356,0.085
30.36,0.08
30.364,0.08
30.368,0.08
30.372,0.085
30.376,0.085
30.38,0.09
30.384,0.08
30.388,0.1
30.392,0.1
30.396,0.1
30.4,0.1
30.404,0.105
30.408,0.1
30.412,0.1
30.416,0.11
30.42,0.11
30.424,0.115
30.428,0.11
30.432,0.115
30.436,0.13
30.44,0.135
30.444,0.13
30.448,0.13
30.452,0.125
30.456,0.12
30.46,0.125
30.464,0.14
30.468,0.14
30.472,0.145
30.476,0.16
30.48,0.15
30.484,0.16
30.488,0.16
30.492,0.175
30.496,0.18
30.5,0.18
30.504,0.185
30.508,0.205
30.512,0.205
30.516,0.21
30.52,0.22
30.524,0.215
30.528,0.215
30.532,0.24
30.536,0.24
30.54,0.22
30.544,0.225
30.548,0.23
30.552,0.22
30.556,0.22
30.56,0.23
30.564,0.225
30.568,0.22
30.572,0.22
30.576,0.215
30.58,0.205
30.584,0.2
30.588,0.18
30.592,0.18
30.596,0.15
30.6,0.14
30.604,0.135
30.608,0.11
30.612,0.11
30.616,0.09
30.62,0.08
30.624,0.06
30.628,0.045
30.632,0.03
30.636,0.02
30.64,0.015
30.644,0.015
30.648,0.015
30.652,0.005
30.656,0.015
30.66,0.02
30.664,-0.0
30.668,-0.0
30.672,0.01
30.676,-0.0
30.68,0.01
30.684,-0.0
30.688,0.02
30.692,0.025
30.696,-0.0
30.7,0.005
30.704,0.01
30.708,0.015
30.712,0.015
30.716,0.025
30.72,0.025
30.724,0.02
30.728,0.035
30.732,0.02
30.736,0.02
30.74,0.035
30.744,0.02
30.748,0.02
30.752,0.045
30.756,0.025
30.76,0.04
30.764,0.035
30.768,0.04
30.772,0.04
30.776,0.04
30.78,0.05
30.784,0.04
30.788,0.045
30.792,0.05
30.796,0.03
30.8,0.03
30.804,0.04
30.808,0.04
30.812,0.04
30.816,0.04
30.82,0.05
30.824,0.06
30.828,0.03
30.832,0.05
30.836,0.05
30.84,0.035
30.844,0.055
30.848,0.05
30.852,0.045
30.856,0.06
30.86,0.06
30.864,0.05
30.868,0.06
30.872,0.06
30.876,0.07
30.88,0.065
30.884,0.05
30.888,0.07
30.892,0.06
30.896,0.085
30.9,0.055
30.904,0.06
30.908,0.08
30.912,0.065
30.916,0.07
30.92,0.075
30.924,0.08
30.928,0.08
30.932,0.08
30.936,0.075
30.94,0.07
30.944,0.095
30.948,0.09
30.952,0.105
30.956,0.11
30.96,0.095
30.964,0.09
30.968,0.1
30.972,0.1
30.976,0.12
30.98,0.135
30.984,0.14
30.988,0.15
30.992,0.12
30.996,0.125
31.0,0.115
31.004,0.115
31.008,0.105
31.012,0.105
31.016,0.12
31.02,0.09
31.024,0.1
31.028,0.08
31.032,0.085
31.036,0.08
31.04,0.07
31.044,0.06
31.048,0.055
31.052,0.06
31.056,0.07
31.06,0.06
31.064,0.06
31.068,0.06
31.072,0.055
31.076,0.05
31.08,0.065
31.084,0.05
31.088,0.065
31.092,0.075
31.096,0.07
31.1,0.065
31.104,0.07
31.108,0.07
31.112,0.1
31.116,0.12
31.12,0.18
31.124,0.31
31.128,0.46
31.132,0.665
31.136,0.83
31.14,0.885
31.144,0.7
31.148,0.42
31.152,0.06
31.156,-0.25
31.16,-0.35
31.164,-0.355
31.168,-0.22
31.172,-0.13
31.176,-0.045
31.18,-0.025
31.184,0.005
31.188,0.025
31.192,0.075
31.196,0.075
31.2,0.07
31.204,0.06
31.208,0.08
31.212,0.075
31.216,0.08
31.22,0.08
31.224,0.09
31.228,0.09
31.232,0.1
31.236,0.105
31.24,0.115
31.244,0.1
31.248,0.1
31.252,0.11
31.256,0.105
31.26,0.12
31.264,0.115
31.268,0.13
31.272,0.135
31.276,0.12
31.28,0.125
31.284,0.14
31.288,0.135
31.292,0.14
31.296,0.13
31.3,0.14
31.304,0.15
31.308,0.14
31.312,0.14
31.316,0.15
31.32,0.155
31.324,0.16
31.328,0.165
31.332,0.16
31.336,0.18
31.34,0.2
31.344,0.205
31.348,0.2
31.352,0.185
31.356,0.21
31.36,0.22
31.364,0.22
31.368,0.22
31.372,0.225
31.376,0.215
31.38,0.23
31.384,0.215
31.388,0.225
31.392,0.22
31.396,0.205
31.4,0.21
31.404,0.205
31.408,0.21
31.412,0.195
31.416,0.175
31.42,0.17
31.424,0.15
31.428,0.16
31.432,0.145
31.436,0.13
31.44,0.105
31.444,0.1
31.448,0.085
31.452,0.07
31.456,0.045
31.46,0.035
31.464,0.035
31.468,0.03
31.472,0.02
31.476,0.02
31.48,-0.0
31.484,0.005
31.488,0.015
31.492,0.02
31.496,-0.0
31.5,0.005
31.504,0.005
31.508,0.005
31.512,0.02
31.516,0.005
31.52,0.02
31.524,0.02
31.528,0.035
31.532,0.02
31.536,0.02
31.54,0.025
31.544,0.035
31.548,0.04
31.552,0.03
31.556,0.04
31.56,0.02
31.564,0.04
31.568,0.035
31.572,0.04
31.576,0.04
31.58,0.03
31.584,0.035
31.588,0.04
31.592,0.055
31.596,0.04
31.6,0.04
31.604,0.035
31.608,0.05
31.612,0.05
31.616,0.05
31.62,0.04
31.624,0.04
31.628,0.06
31.632,0.05
31.636,0.06
31.64,0.06
31.644,0.055
31.648,0.045
31.652,0.04
31.656,0.05
31.66,0.06
31.664,0.06
31.668,0.055
31.672,0.05
31.676,0.04
31.68,0.05
31.684,0.05
31.688,0.045
31.692,0.05
31.696,0.045
31.7,0.04
31.704,0.06
31.708,0.055
31.712,0.045
31.716,0.055
31.72,0.055
31.724,0.06
31.728,0.06
31.732,0.045
31.736,0.055
31.74,0.075
31.744,0.07
31.748,0.065
31.752,0.065
31.756,0.07
31.76,0.06
31.764,0.055
31.768,0.06
31.772,0.07
31.776,0.08
31.78,0.08
31.784,0.08
31.788,0.095
31.792,0.1
31.796,0.09
31.8,0.115
31.804,0.12
31.808,0.12
31.812,0.14
31.816,0.115
31.82,0.135
31.824,0.12
31.828,0.11
31.832,0.115
31.836,0.1
31.84,0.1
31.844,0.105
31.848,0.095
31.852,0.085
31.856,0.08
31.86,0.075
31.864,0.08
31.868,0.07
31.872,0.065
31.876,0.065
31.88,0.06
31.884,0.06
31.888,0.075
31.892,0.065
31.896,0.06
31.9,0.06
31.904,0.065
31.908,0.06
31.912,0.07
31.916,0.06
31.92,0.06
31.924,0.075
31.928,0.06
31.932,0.065
31.936,0.08
31.94,0.135
31.944,0.18
31.948,0.255
31.952,0.4
31.956,0.61
31.96,0.81
31.964,0.885
31.968,0.85
31.972,0.57
31.976,0.17
31.98,-0.205
31.984,-0.365
31.988,-0.395
31.992,-0.3
31.996,-0.18
32.0,-0.1
32.004,-0.06
32.008,-0.01
32.012,0.015
32.016,0.05
32.02,0.065
32.024,0.055
32.028,0.06
32.032,0.05
32.036,0.06
32.04,0.06
32.044,0.07
32.048,0.075
32.052,0.07
32.056,0.085
32.06,0.07
32.064,0.09
32.068,0.08
32.072,0.095
32.076,0.1
32.08,0.1
32.084,0.1
32.088,0.095
32.092,0.115
32.096,0.11
32.1,0.1
32.104,0.115
32.108,0.115
32.112,0.13
32.116,0.125
32.12,0.135
32.124,0.135
32.128,0.14
32.132,0.155
32.136,0.145
32.14,0.155
32.144,0.16
32.148,0.17
32.152,0.175
32.156,0.175
32.16,0.175
32.164,0.18
32.168,0.195
32.172,0.19
32.176,0.2
32.18,0.215
32.184,0.215
32.188,0.225
32.192,0.235
32.196,0.225
32.2,0.22
32.204,0.25
32.208,0.225
32.212,0.235
32.216,0.235
32.22,0.24
32.224,0.225
32.228,0.23
32.232,0.22
32.236,0.21
32.24,0.21
32.244,0.18
32.248,0.18
32.252,0.165
32.256,0.145
32.26,0.125
32.264,0.12
32.268,0.08
32.272,0.09
32.276,0.06
32.28,0.06
32.284,0.025
32.288,0.03
32.292,0.02
32.296,0.01
32.3,0.005
32.304,-0.0
32.308,-0.005
32.312,-0.005
32.316,-0.01
32.32,-0.015
32.324,-0.02
32.328,-0.015
32.332,-0.005
32.336,-0.01
32.34,-0.005
32.344,-0.01
32.348,-0.0
32.352,-0.0
32.356,-0.0
32.36,-0.0
32.364,0.005
32.368,0.01
32.372,0.01
32.376,0.005
32.38,0.02
32.384,0.015
32.388,0.02
32.392,0.025
32.396,0.025
32.4,0.025
32.404,0.035
32.408,0.045
32.412,0.03
32.416,0.04
32.42,0.04
32.424,0.055
32.428,0.04
32.432,0.05
32.436,0.04
32.44,0.04
32.444,0.04
32.448,0.05
32.452,0.06
32.456,0.055
32.46,0.06
32.464,0.06
32.468,0.06
32.472,0.06
32.476,0.055
32.48,0.06
32.484,0.045
32.488,0.055
32.492,0.06
32.496,0.065
32.5,0.045
32.504,0.06
32.508,0.06
32.512,0.06
32.516,0.045
32.52,0.05
32.524,0.05
32.528,0.07
32.532,0.06
32.536,0.05
32.54,0.07
32.544,0.055
32.548,0.065
32.552,0.055
32.556,0.055
32.56,0.06
32.564,0.06
32.568,0.06
32.572,0.065
32.576,0.075
32.58,0.055
32.584,0.07
32.588,0.06
32.592,0.065
32.596,0.07
32.6,0.075
32.604,0.085
32.608,0.085
32.612,0.09
32.616,0.09
32.62,0.09
32.624,0.095
32.628,0.1
32.632,0.105
32.636,0.11
32.64,0.125
32.644,0.135
32.648,0.13
32.652,0.125
32.656,0.13
32.66,0.125
32.664,0.105
32.668,0.115
32.672,0.12
32.676,0.115
32.68,0.105
32.684,0.095
32.688,0.1
32.692,0.095
32.696,0.085
32.7,0.08
32.704,0.06
32.708,0.06
32.712,0.06
32.716,0.065
32.72,0.07
32.724,0.06
32.728,0.07
32.732,0.06
32.736,0.07
32.74,0.07
32.744,0.07
32.748,0.08
32.752,0.06
32.756,0.09
32.76,0.08
32.764,0.075
32.768,0.075
32.772,0.11
32.776,0.155
32.78,0.19
32.784,0.295
32.788,0.44
32.792,0.64
32.796,0.825
32.8,0.955
32.804,0.865
32.808,0.59
32.812,0.19
32.816,-0.2
32.82,-0.36
32.824,-0.385
32.828,-0.28
32.832,-0.18
32.836,-0.095
32.84,-0.05
32.844,-0.0
32.848,0.025
32.852,0.05
32.856,0.07
32.86,0.08
32.864,0.06
32.868,0.055
32.872,0.07
32.876,0.08
32.88,0.075
32.884,0.085
32.888,0.095
32.892,0.09
32.896,0.09
32.9,0.1
32.904,0.11
32.908,0.09
32.912,0.12
32.916,0.1
32.92,0.12
32.924,0.1
32.928,0.12
32.932,0.1
32.936,0.125
32.94,0.105
32.944,0.115
32.948,0.135
32.952,0.12
32.956,0.125
32.96,0.135
32.964,0.14
32.968,0.15
32.972,0.14
32.976,0.145
32.98,0.15
32.984,0.155
32.988,0.175
32.992,0.18
32.996,0.185
33.0,0.185
33.004,0.195
33.008,0.19
33.012,0.2
33.016,0.215
33.02,0.22
33.024,0.22
33.028,0.235
33.032,0.24
33.036,0.235
33.04,0.24
33.044,0.25
33.048,0.26
33.052,0.24
33.056,0.24
33.06,0.25
33.064,0.24
33.068,0.225
33.072,0.22
33.076,0.205
33.08,0.18
33.084,0.185
33.088,0.185
33.092,0.17
33.096,0.14
33.1,0.125
33.104,0.12
33.108,0.085
33.112,0.075
33.116,0.065
33.12,0.04
33.124,0.035
33.128,0.035
33.132,0.015
33.136,0.02
33.14,0.015
33.144,0.005
33.148,-0.0
33.152,0.01
33.156,-0.0
33.16,-0.0
33.164,-0.0
33.168,-0.005
33.172,0.01
33.176,-0.0
33.18,0.005
33.184,0.02
33.188,0.02
33.192,-0.0
33.196,0.005
33.2,0.015
33.204,-0.0
33.208,0.025
33.212,0.02
33.216,0.01
33.22,0.025
33.224,0.01
33.228,0.025
33.232,0.025
33.236,0.02
33.24,0.025
33.244,0.02
33.248,0.02
33.252,0.035
33.256,0.03
33.26,0.035
33.264,0.04
33.268,0.04
33.272,0.045
33.276,0.04
33.28,0.04
33.284,0.04
33.288,0.05
33.292,0.05
33.296,0.065
33.3,0.03
33.304,0.05
33.308,0.055
33.312,0.035
33.316,0.045
33.32,0.06
33.324,0.05
33.328,0.05
33.332,0.05
33.336,0.06
33.34,0.065
33.344,0.055
33.348,0.06
33.352,0.06
33.356,0.065
33.36,0.06
33.364,0.065
33.368,0.065
33.372,0.05
33.376,0.055
33.38,0.06
33.384,0.06
33.388,0.07
33.392,0.07
33.396,0.07
33.4,0.075
33.404,0.06
33.408,0.065
33.412,0.07
33.416,0.065
33.42,0.075
33.424,0.07
33.428,0.08
33.432,0.075
33.436,0.075
33.44,0.08
33.444,0.07
33.448,0.08
33.452,0.08
33.456,0.07
33.46,0.08
33.464,0.08
33.468,0.09
33.472,0.085
33.476,0.095
33.48,0.1
33.484,0.095
33.488,0.1
33.492,0.1
33.496,0.105
33.5,0.11
33.504,0.125
33.508,0.13
33.512,0.145
33.516,0.12
33.52,0.13
33.524,0.11
33.528,0.105
33.532,0.12
33.536,0.115
33.54,0.095
33.544,0.1
33.548,0.1
33.552,0.1
33.556,0.08
33.56,0.075
33.564,0.065
33.568,0.065
33.572,0.06
33.576,0.065
33.58,0.06
33.584,0.06
33.588,0.065
33.592,0.06
33.596,0.07
33.6,0.07
33.604,0.06
33.608,0.065
33.612,0.08
33.616,0.08
33.62,0.07
33.624,0.08
33.628,0.08
33.632,0.075
33.636,0.12
33.64,0.14
33.644,0.19
33.648,0.31
33.652,0.45
33.656,0.665
33.66,0.86
33.664,0.975
33.668,0.815
33.672,0.52
33.676,0.125
33.68,-0.225
33.684,-0.35
33.688,-0.365
33.692,-0.25
33.696,-0.145
33.7,-0.085
33.704,-0.035
33.708,0.015
33.712,0.04
33.716,0.06
33.72,0.07
33.724,0.06
33.728,0.065
33.732,0.07
33.736,0.065
33.74,0.08
33.744,0.09
33.748,0.08
33.752,0.08
33.756,0.095
33.76,0.1
33.764,0.105
33.768,0.1
33.772,0.095
33.776,0.12
33.78,0.095
33.784,0.115
33.788,0.12
33.792,0.115
33.796,0.105
33.8,0.12
33.804,0.115
33.808,0.125
33.812,0.12
33.816,0.14
33.82,0.12
33.824,0.14
33.828,0.14
33.832,0.135
33.836,0.14
33.84,0.14
33.844,0.14
33.848,0.155
33.852,0.165
33.856,0.175
33.86,0.175
33.864,0.18
33.868,0.185
33.872,0.2
33.876,0.21
33.88,0.215
33.884,0.225
33.888,0.22
33.892,0.225
33.896,0.24
33.9,0.23
33.904,0.225
33.908,0.24
33.912,0.24
33.916,0.23
33.92,0.225
33.924,0.23
33.928,0.22
33.932,0.225
33.936,0.215
33.94,0.215
33.944,0.195
33.948,0.19
33.952,0.175
33.956,0.165
33.96,0.14
33.964,0.125
33.968,0.12
33.972,0.1
33.976,0.085
33.98,0.075
33.984,0.045
33.988,0.04
33.992,0.04
33.996,0.035
34.0,0.02
34.004,0.02
34.008,0.01
34.012,0.015
34.016,0.005
34.02,0.02
34.024,0.01
34.028,0.005
34.032,-0.0
34.036,0.015
34.04,-0.0
34.044,0.005
34.048,0.015
34.052,0.015
34.056,0.01
34.06,0.005
34.064,0.025
34.068,0.02
34.072,0.02
34.076,0.035
34.08,0.01
34.084,0.025
34.088,0.02
34.092,0.025
34.096,0.03
34.1,0.03
34.104,0.03
34.108,0.02
34.112,0.045
34.116,0.035
34.12,0.03
34.124,0.02
34.128,0.04
34.132,0.04
34.136,0.03
34.14,0.025
34.144,0.04
34.148,0.03
34.152,0.05
34.156,0.05
34.16,0.04
34.164,0.045
34.168,0.06
34.172,0.05
34.176,0.045
34.18,0.055
34.184,0.04
34.188,0.04
34.192,0.06
34.196,0.04
34.2,0.05
34.204,0.055
34.208,0.04
34.212,0.05
34.216,0.055
34.22,0.045
34.224,0.06
34.228,0.06
34.232,0.06
34.236,0.05
34.24,0.06
34.244,0.05
34.248,0.065
34.252,0.06
34.256,0.07
34.26,0.07
34.264,0.065
34.268,0.07
34.272,0.08
34.276,0.06
34.28,0.08
34.284,0.075
34.288,0.08
34.292,0.085
34.296,0.08
34.3,0.07
34.304,0.08
34.308,0.075
34.312,0.08
34.316,0.09
34.32,0.08
34.324,0.075
34.328,0.08
34.332,0.08
34.336,0.09
34.34,0.08
34.344,0.08
34.348,0.08
34.352,0.08
34.356,0.085
34.36,0.08
34.364,0.08
34.368,0.095
34.372,0.09
34.376,0.1
34.38,0.12
34.384,0.1
34.388,0.11
34.392,0.11
34.396,0.105
34.4,0.125
34.404,0.14
34.408,0.14
34.412,0.15
34.416,0.14
34.42,0.14
34.424,0.125
34.428,0.13
34.432,0.12
34.436,0.125
34.44,0.11
34.444,0.12
34.448,0.1
34.452,0.1
34.456,0.095
34.46,0.08
34.464,0.075
34.468,0.06
34.472,0.07
34.476,0.055
34.48,0.06
34.484,0.065
34.488,0.08
34.492,0.06
34.496,0.07
34.5,0.06
34.504,0.08
34.508,0.08
34.512,0.08
34.516,0.08
34.52,0.085
34.524,0.08
34.528,0.075
34.532,0.08
34.536,0.1
34.54,0.125
34.544,0.195
34.548,0.285
34.552,0.42
34.556,0.625
34.56,0.82
34.564,0.93
34.568,0.87
34.572,0.57
34.576,0.21
34.58,-0.17
34.584,-0.335
34.588,-0.38
34.592,-0.28
34.596,-0.165
34.6,-0.1
34.604,-0.055
34.608,-0.0
34.612,0.045
34.616,0.065
34.62,0.08
34.624,0.09
34.628,0.075
34.632,0.065
34.636,0.08
34.64,0.08
34.644,0.09
34.648,0.09
34.652,0.1
34.656,0.11
34.66,0.105
34.664,0.1
34.668,0.1
34.672,0.11
34.676,0.1
34.68,0.1
34.684,0.1
34.688,0.105
34.692,0.11
34.696,0.12
34.7,0.095
34.704,0.115
34.708,0.12
34.712,0.125
34.716,0.135
34.72,0.135
34.724,0.13
34.728,0.125
34.732,0.14
34.736,0.145
34.74,0.155
34.744,0.15
34.748,0.165
34.752,0.16
34.756,0.175
34.76,0.17
34.764,0.18
34.768,0.195
34.772,0.195
34.776,0.195
34.78,0.195
34.784,0.2
34.788,0.215
34.792,0.2
34.796,0.225
34.8,0.235
34.804,0.22
34.808,0.235
34.812,0.24
34.816,0.215
34.82,0.24
34.824,0.225
34.828,0.22
34.832,0.215
34.836,0.225
34.84,0.22
34.844,0.205
34.848,0.2
34.852,0.18
34.856,0.165
34.86,0.16
34.864,0.14
34.868,0.12
34.872,0.095
34.876,0.09
34.88,0.08
34.884,0.065
34.888,0.045
34.892,0.035
34.896,0.035
34.9,0.015
34.904,0.02
34.908,0.005
34.912,0.005
34.916,-0.0
34.92,-0.005
34.924,0.005
34.928,-0.0
34.932,-0.0
34.936,0.01
34.94,0.005
34.944,-0.0
34.948,-0.005
34.952,-0.0
34.956,-0.0
34.96,-0.0
34.964,0.01
34.968,0.02
34.972,0.005
34.976,0.02
34.98,0.02
34.984,0.01
34.988,0.02
34.992,0.02
34.996,0.02
35.0,0.025
35.004,0.02
35.008,0.02
35.012,0.02
35.016,0.02
35.02,0.02
35.024,0.04
35.028,0.03
35.032,0.02
35.036,0.035
35.04,0.04
35.044,0.025
35.048,0.02
35.052,0.025
35.056,0.02
35.06,0.035
35.064,0.04
35.068,0.03
35.072,0.045
35.076,0.04
35.08,0.04
35.084,0.045
35.088,0.04
35.092,0.04
35.096,0.035
35.1,0.04
35.104,0.035
35.108,0.04
35.112,0.045
35.116,0.045
35.12,0.06
35.124,0.04
35.128,0.045
35.132,0.05
35.136,0.045
35.14,0.06
35.144,0.05
35.148,0.06
35.152,0.06
35.156,0.07
35.16,0.055
35.164,0.06
35.168,0.06
35.172,0.065
35.176,0.065
35.18,0.07
35.184,0.07
35.188,0.075
35.192,0.07
35.196,0.075
35.2,0.065
35.204,0.06
35.208,0.075
35.212,0.075
35.216,0.065
35.22,0.075
35.224,0.08
35.228,0.07
35.232,0.08
35.236,0.06
35.24,0.07
35.244,0.08
35.248,0.075
35.252,0.065
35.256,0.08
35.26,0.09
35.264,0.07
35.268,0.08
35.272,0.08
35.276,0.075
35.28,0.07
35.284,0.08
35.288,0.08
35.292,0.085
35.296,0.09
35.3,0.095
35.304,0.1
35.308,0.095
35.312,0.095
35.316,0.1
35.32,0.1
35.324,0.125
35.328,0.13
35.332,0.14
35.336,0.13
35.34,0.135
35.344,0.13
35.348,0.125
35.352,0.115
35.356,0.12
35.36,0.1
35.364,0.1
35.368,0.095
35.372,0.08
35.376,0.095
35.38,0.07
35.384,0.07
35.388,0.06
35.392,0.08
35.396,0.06
35.4,0.055
35.404,0.07
35.408,0.07
35.412,0.075
35.416,0.07
35.42,0.07
35.424,0.07
35.428,0.075
35.432,0.065
35.436,0.08
35.44,0.08
35.444,0.08
35.448,0.085
35.452,0.085
35.456,0.085
35.46,0.15
35.464,0.175
35.468,0.26
35.472,0.38
35.476,0.54
35.48,0.765
35.484,0.865
35.488,0.875
35.492,0.645
35.496,0.305
35.5,-0.06
35.504,-0.27
35.508,-0.345
35.512,-0.305
35.516,-0.195
35.52,-0.1
35.524,-0.04
35.528,-0.01
35.532,0.035
35.536,0.06
35.54,0.09
35.544,0.075
35.548,0.08
35.552,0.085
35.556,0.075
35.56,0.09
35.564,0.075
35.568,0.08
35.572,0.09
35.576,0.095
35.58,0.09
35.584,0.095
35.588,0.085
35.592,0.115
35.596,0.095
35.6,0.085
35.604,0.1
35.608,0.1
35.612,0.12
35.616,0.11
35.62,0.1
35.624,0.11
35.628,0.13
35.632,0.11
35.636,0.125
35.64,0.12
35.644,0.12
35.648,0.125
35.652,0.14
35.656,0.14
35.66,0.17
35.664,0.15
35.668,0.16
35.672,0.15
35.676,0.175
35.68,0.17
35.684,0.165
35.688,0.185
35.692,0.2
35.696,0.195
35.7,0.2
35.704,0.18
35.708,0.22
35.712,0.205
35.716,0.22
35.72,0.23
35.724,0.225
35.728,0.235
35.732,0.24
35.736,0.23
35.74,0.23
35.744,0.22
35.748,0.235
35.752,0.22
35.756,0.21
35.76,0.215
35.764,0.185
35.768,0.185
35.772,0.18
35.776,0.16
35.78,0.14
35.784,0.125
35.788,0.11
35.792,0.1
35.796,0.095
35.8,0.085
35.804,0.06
35.808,0.03
35.812,0.045
35.816,0.04
35.82,0.015
35.824,0.02
35.828,0.03
35.832,0.025
35.836,0.015
35.84,0.02
35.844,-0.0
35.848,0.005
35.852,0.005
35.856,-0.0
35.86,0.02
35.864,-0.0
35.868,0.015
35.872,-0.0
35.876,0.005
35.88,0.01
35.884,-0.0
35.888,0.015
35.892,0.02
35.896,0.02
35.9,0.02
35.904,0.025
35.908,0.02
35.912,0.035
35.916,0.02
35.92,0.035
35.924,0.02
35.928,0.035
35.932,0.035
35.936,0.03
35.94,0.035
35.944,0.035
35.948,0.045
35.952,0.04
35.956,0.045
35.96,0.04
35.964,0.05
35.968,0.025
35.972,0.055
35.976,0.05
35.98,0.04
35.984,0.045
35.988,0.05
35.992,0.05
35.996,0.045
36.0,0.05
36.004,0.05
36.008,0.04
36.012,0.04
36.016,0.045
36.02,0.045
36.024,0.05
36.028,0.05
36.032,0.05
36.036,0.06
36.04,0.06
36.044,0.06
36.048,0.06
36.052,0.07
36.056,0.06
36.06,0.08
36.064,0.065
36.068,0.06
36.072,0.055
36.076,0.075
36.08,0.075
36.084,0.075
36.088,0.085
36.092,0.08
36.096,0.08
36.1,0.075
36.104,0.075
36.108,0.085
36.112,0.08
36.116,0.09
36.12,0.08
36.124,0.095
36.128,0.085
36.132,0.08
36.136,0.09
36.14,0.09
36.144,0.08
36.148,0.08
36.152,0.08
36.156,0.08
36.16,0.08
36.164,0.08
36.168,0.065
36.172,0.095
36.176,0.08
36.18,0.08
36.184,0.075
36.188,0.1
36.192,0.07
36.196,0.09
36.2,0.085
36.204,0.08
36.208,0.08
36.212,0.09
36.216,0.095
36.22,0.1
36.224,0.1
36.228,0.105
36.232,0.105
36.236,0.115
36.24,0.1
36.244,0.12
36.248,0.12
36.252,0.12
36.256,0.125
36.26,0.125
36.264,0.12
36.268,0.115
36.272,0.12
36.276,0.125
36.28,0.1
36.284,0.1
36.288,0.11
36.292,0.1
36.296,0.095
36.3,0.095
36.304,0.08
36.308,0.08
36.312,0.08
36.316,0.08
36.32,0.08
36.324,0.075
36.328,0.08
36.332,0.08
36.336,0.095
36.34,0.085
36.344,0.095
36.348,0.075
36.352,0.07
36.356,0.08
36.36,0.085
36.364,0.075
36.368,0.095
36.372,0.08
36.376,0.08
36.38,0.1
36.384,0.125
36.388,0.16
36.392,0.225
36.396,0.335
36.4,0.505
36.404,0.7
36.408,0.86
36.412,0.92
36.416,0.68
36.42,0.36
36.424,-0.0
36.428,-0.25
36.432,-0.36
36.436,-0.315
36.44,-0.2
36.444,-0.085
36.448,-0.06
36.452,-0.015
36.456,0.025
36.46,0.055
36.464,0.07
36.468,0.07
36.472,0.075
36.476,0.075
36.48,0.06
36.484,0.065
36.488,0.065
36.492,0.07
36.496,0.09
36.5,0.085
36.504,0.095
36.508,0.085
36.512,0.085
36.516,0.09
36.52,0.09
36.524,0.1
36.528,0.1
36.532,0.11
36.536,0.1
36.54,0.1
36.544,0.095
36.548,0.105
36.552,0.11
36.556,0.115
36.56,0.11
36.564,0.12
36.568,0.115
36.572,0.12
36.576,0.12
36.58,0.12
36.584,0.14
36.588,0.135
36.592,0.15
36.596,0.155
36.6,0.16
36.604,0.17
36.608,0.18
36.612,0.18
36.616,0.185
36.62,0.18
36.624,0.185
36.628,0.2
36.632,0.205
36.636,0.21
36.64,0.22
36.644,0.215
36.648,0.24
36.652,0.22
36.656,0.22
36.66,0.225
36.664,0.225
36.668,0.215
36.672,0.24
36.676,0.23
36.68,0.22
36.684,0.2
36.688,0.21
36.692,0.2
36.696,0.195
36.7,0.18
36.704,0.16
36.708,0.14
36.712,0.12
36.716,0.11
36.72,0.085
36.724,0.07
36.728,0.04
36.732,0.055
36.736,0.04
36.74,0.02
36.744,0.02
36.748,0.015
36.752,-0.0
36.756,-0.0
36.76,0.01
36.764,-0.0
36.768,-0.0
36.772,-0.0
36.776,-0.0
36.78,-0.0
36.784,-0.0
36.788,-0.005
36.792,0.005
36.796,0.015
36.8,0.015
36.804,-0.0
36.808,0.015
36.812,0.005
36.816,0.005
36.82,0.015
36.824,0.005
36.828,0.01
36.832,0.015
36.836,0.015
36.84,0.02
36.844,0.02
36.848,0.025
36.852,0.02
36.856,0.025
36.86,0.025
36.864,0.04
36.868,0.02
36.872,0.03
36.876,0.035
36.88,0.025
36.884,0.04
36.888,0.045
36.892,0.05
36.896,0.04
36.9,0.04
36.904,0.05
36.908,0.05
36.912,0.04
36.916,0.045
36.92,0.04
36.924,0.04
36.928,0.04
36.932,0.055
36.936,0.045
36.94,0.06
36.944,0.055
36.948,0.045
36.952,0.05
36.956,0.05
36.96,0.06
36.964,0.06
36.968,0.05
36.972,0.06
36.976,0.065
36.98,0.065
36.984,0.06
36.988,0.06
36.992,0.07
36.996,0.065
37.0,0.06
37.004,0.085
37.008,0.07
37.012,0.07
37.016,0.075
37.02,0.075
37.024,0.08
37.028,0.08
37.032,0.07
37.036,0.08
37.04,0.075
37.044,0.08
37.048,0.08
37.052,0.085
37.056,0.08
37.06,0.075
37.064,0.08
37.068,0.08
37.072,0.075
37.076,0.06
37.08,0.08
37.084,0.08
37.088,0.07
37.092,0.08
37.096,0.08
37.1,0.07
37.104,0.08
37.108,0.08
37.112,0.085
37.116,0.08
37.12,0.085
37.124,0.09
37.128,0.085
37.132,0.08
37.136,0.075
37.14,0.08
37.144,0.08
37.148,0.09
37.152,0.09
37.156,0.08
37.16,0.08
37.164,0.085
37.168,0.08
37.172,0.08
37.176,0.065
37.18,0.08
37.184,0.095
37.188,0.095
37.192,0.09
37.196,0.095
37.2,0.1
37.204,0.1
37.208,0.11
37.212,0.12
37.216,0.12
37.22,0.12
37.224,0.125
37.228,0.115
37.232,0.125
37.236,0.15
37.24,0.155
37.244,0.14
37.248,0.135
37.252,0.145
37.256,0.145
37.26,0.135
37.264,0.135
37.268,0.125
37.272,0.12
37.276,0.115
37.28,0.115
37.284,0.105
37.288,0.11
37.292,0.1
37.296,0.1
37.3,0.08
37.304,0.075
37.308,0.08
37.312,0.08
37.316,0.085
37.32,0.06
37.324,0.08
37.328,0.085
37.332,0.1
37.336,0.085
37.34,0.08
37.344,0.1
37.348,0.08
37.352,0.08
37.356,0.08
37.36,0.095
37.364,0.08
37.368,0.08
37.372,0.135
37.376,0.145
37.38,0.22
37.384,0.325
37.388,0.5
37.392,0.72
37.396,0.9
37.4,0.97
37.404,0.775
37.408,0.445
37.412,0.06
37.416,-0.25
37.42,-0.38
37.424,-0.355
37.428,-0.235
37.432,-0.14
37.436,-0.08
37.44,-0.03
37.444,0.01
37.448,0.05
37.452,0.06
37.456,0.07
37.46,0.065
37.464,0.07
37.468,0.065
37.472,0.08
37.476,0.08
37.48,0.075
37.484,0.08
37.488,0.08
37.492,0.085
37.496,0.1
37.5,0.08
37.504,0.1
37.508,0.095
37.512,0.1
37.516,0.105
37.52,0.11
37.524,0.11
37.528,0.105
37.532,0.125
37.536,0.11
37.54,0.14
37.544,0.125
37.548,0.14
37.552,0.14
37.556,0.14
37.56,0.155
37.564,0.14
37.568,0.16
37.572,0.145
37.576,0.16
37.58,0.17
37.584,0.175
37.588,0.175
37.592,0.18
37.596,0.18
37.6,0.195
37.604,0.195
37.608,0.205
37.612,0.22
37.616,0.215
37.62,0.225
37.624,0.225
37.628,0.215
37.632,0.225
37.636,0.255
37.64,0.24
37.644,0.24
37.648,0.26
37.652,0.24
37.656,0.235
37.66,0.23
37.664,0.225
37.668,0.23
37.672,0.23
37.676,0.22
37.68,0.2
37.684,0.18
37.688,0.18
37.692,0.16
37.696,0.16
37.7,0.14
37.704,0.115
37.708,0.115
37.712,0.075
37.716,0.08
37.72,0.055
37.724,0.045
37.728,0.025
37.732,0.02
37.736,0.01
37.74,0.005
37.744,-0.005
37.748,-0.0
37.752,-0.0
37.756,-0.0
37.76,0.01
37.764,-0.005
37.768,-0.015
37.772,-0.0
37.776,-0.0
37.78,-0.015
37.784,0.005
37.788,-0.0
37.792,-0.005
37.796,-0.0
37.8,-0.0
37.804,-0.0
37.808,-0.0
37.812,-0.0
37.816,0.01
37.82,0.02
37.824,0.025
37.828,0.01
37.832,0.03
37.836,0.015
37.84,0.03
37.844,0.035
37.848,0.035
37.852,0.025
37.856,0.04
37.86,0.05
37.864,0.045
37.868,0.035
37.872,0.04
37.876,0.055
37.88,0.045
37.884,0.05
37.888,0.055
37.892,0.045
37.896,0.045
37.9,0.05
37.904,0.06
37.908,0.055
37.912,0.045
37.916,0.05
37.92,0.06
37.924,0.06
37.928,0.04
37.932,0.055
37.936,0.04
37.94,0.06
37.944,0.06
37.948,0.045
37.952,0.045
37.956,0.065
37.96,0.045
37.964,0.055
37.968,0.06
37.972,0.05
37.976,0.065
37.98,0.055
37.984,0.06
37.988,0.05
37.992,0.05
37.996,0.07
38.0,0.04
38.004,0.06
38.008,0.07
38.012,0.06
38.016,0.07
38.02,0.06
38.024,0.08
38.028,0.06
38.032,0.07
38.036,0.07
38.04,0.08
38.044,0.06
38.048,0.07
38.052,0.075
38.056,0.065
38.06,0.075
38.064,0.07
38.068,0.075
38.072,0.07
38.076,0.075
38.08,0.075
38.084,0.07
38.088,0.08
38.092,0.06
38.096,0.08
38.1,0.07
38.104,0.085
38.108,0.08
38.112,0.075
38.116,0.075
38.12,0.09
38.124,0.085
38.128,0.08
38.132,0.09
38.136,0.095
38.14,0.085
38.144,0.085
38.148,0.095
38.152,0.095
38.156,0.09
38.16,0.095
38.164,0.08
38.168,0.08
38.172,0.1
38.176,0.095
38.18,0.08
38.184,0.09
38.188,0.1
38.192,0.095
38.196,0.1
38.2,0.1
38.204,0.1
38.208,0.1
38.212,0.1
38.216,0.095
38.22,0.12
38.224,0.125
38.228,0.12
38.232,0.12
38.236,0.125
38.24,0.14
38.244,0.14
38.248,0.145
38.252,0.155
38.256,0.16
38.26,0.165
38.264,0.16
38.268,0.16
38.272,0.155
38.276,0.145
38.28,0.13
38.284,0.13
38.288,0.12
38.292,0.13
38.296,0.11
38.3,0.1
38.304,0.11
38.308,0.1
38.312,0.095
38.316,0.075
38.32,0.075
38.324,0.075
38.328,0.075
38.332,0.08
38.336,0.075
38.34,0.07
38.344,0.08
38.348,0.075
38.352,0.08
38.356,0.08
38.36,0.095
38.364,0.08
38.368,0.085
38.372,0.075
38.376,0.075
38.38,0.07
38.384,0.075
38.388,0.12
38.392,0.14
38.396,0.22
38.4,0.345
38.404,0.52
38.408,0.735
38.412,0.91
38.416,0.945
38.42,0.72
38.424,0.375
38.428,-0.005
38.432,-0.28
38.436,-0.385
38.44,-0.33
38.444,-0.22
38.448,-0.125
38.452,-0.06
38.456,-0.02
38.46,0.02
38.464,0.065
38.468,0.065
38.472,0.08
38.476,0.08
38.48,0.085
38.484,0.085
38.488,0.09
38.492,0.09
38.496,0.095
38.5,0.1
38.504,0.1
38.508,0.1
38.512,0.1
38.516,0.105
38.52,0.115
38.524,0.12
38.528,0.12
38.532,0.115
38.536,0.12
38.54,0.12
38.544,0.12
38.548,0.14
38.552,0.13
38.556,0.14
38.56,0.135
38.564,0.14
38.568,0.135
38.572,0.13
38.576,0.14
38.58,0.14
38.584,0.14
38.588,0.155
38.592,0.165
38.596,0.165
38.6,0.165
38.604,0.17
38.608,0.18
38.612,0.19
38.616,0.19
38.62,0.195
38.624,0.2
38.628,0.205
38.632,0.21
38.636,0.22
38.64,0.225
38.644,0.22
38.648,0.225
38.652,0.225
38.656,0.23
38.66,0.23
38.664,0.225
38.668,0.235
38.672,0.215
38.676,0.23
38.68,0.225
38.684,0.205
38.688,0.205
38.692,0.21
38.696,0.195
38.7,0.185
38.704,0.175
38.708,0.16
38.712,0.155
38.716,0.125
38.72,0.115
38.724,0.09
38.728,0.08
38.732,0.07
38.736,0.05
38.74,0.045
38.744,0.035
38.748,0.035
38.752,0.005
38.756,0.015
38.76,0.005
38.764,-0.0
38.768,-0.0
38.772,-0.0
38.776,-0.0
38.78,-0.0
38.784,-0.0
38.788,-0.0
38.792,0.02
38.796,0.015
38.8,0.02
38.804,0.005
38.808,0.02
38.812,0.005
38.816,0.01
38.82,0.015
38.824,0.015
38.828,0.03
38.832,0.015
38.836,0.025
38.84,0.04
38.844,0.02
38.848,0.04
38.852,0.02
38.856,0.04
38.86,0.04
38.864,0.04
38.868,0.04
38.872,0.04
38.876,0.055
38.88,0.025
38.884,0.04
38.888,0.04
38.892,0.045
38.896,0.045
38.9,0.045
38.904,0.055
38.908,0.035
38.912,0.05
38.916,0.05
38.92,0.04
38.924,0.05
38.928,0.045
38.932,0.05
38.936,0.05
38.94,0.05
38.944,0.05
38.948,0.06
38.952,0.055
38.956,0.035
38.96,0.045
38.964,0.05
38.968,0.04
38.972,0.055
38.976,0.045
38.98,0.04
38.984,0.04
38.988,0.045
38.992,0.05
38.996,0.05
39.0,0.04
39.004,0.045
39.008,0.045
39.012,0.06
39.016,0.055
39.02,0.06
39.024,0.05
39.028,0.065
39.032,0.065
39.036,0.05
39.04,0.06
39.044,0.065
39.048,0.06
39.052,0.075
39.056,0.065
39.06,0.08
39.064,0.06
39.068,0.07
39.072,0.075
39.076,0.065
39.08,0.07
39.084,0.085
39.088,0.065
39.092,0.065
39.096,0.08
39.1,0.08
39.104,0.095
39.108,0.08
39.112,0.085
39.116,0.08
39.12,0.08
39.124,0.09
39.128,0.08
39.132,0.1
39.136,0.08
39.14,0.09
39.144,0.07
39.148,0.095
39.152,0.085
39.156,0.09
39.16,0.09
39.164,0.08
39.168,0.09
39.172,0.08
39.176,0.085
39.18,0.09
39.184,0.095
39.188,0.085
39.192,0.095
39.196,0.1
39.2,0.085
39.204,0.095
39.208,0.09
39.212,0.09
39.216,0.09
39.22,0.09
39.224,0.11
39.228,0.105
39.232,0.125
39.236,0.12
39.24,0.12
39.244,0.12
39.248,0.13
39.252,0.125
39.256,0.14
39.26,0.14
39.264,0.16
39.268,0.145
39.272,0.14
39.276,0.14
39.28,0.12
39.284,0.13
39.288,0.13
39.292,0.12
39.296,0.105
39.3,0.105
39.304,0.09
39.308,0.09
39.312,0.09
39.316,0.08
39.32,0.08
39.324,0.065
39.328,0.06
39.332,0.07
39.336,0.075
39.34,0.075
39.344,0.075
39.348,0.08
39.352,0.065
39.356,0.08
39.36,0.075
39.364,0.08
39.368,0.065
39.372,0.08
39.376,0.08
39.38,0.08
39.384,0.075
39.388,0.07
39.392,0.125
39.396,0.15
39.4,0.235
39.404,0.35
39.408,0.56
39.412,0.75
39.416,0.92
39.42,0.945
39.424,0.71
39.428,0.355
39.432,-0.035
39.436,-0.27
39.44,-0.365
39.444,-0.33
39.448,-0.215
39.452,-0.115
39.456,-0.06
39.46,-0.015
39.464,0.02
39.468,0.06
39.472,0.085
39.476,0.08
39.48,0.075
39.484,0.07
39.488,0.08
39.492,0.08
39.496,0.095
39.5,0.08
39.504,0.1
39.508,0.1
39.512,0.095
39.516,0.1
39.52,0.105
39.524,0.1
39.528,0.1
39.532,0.1
39.536,0.12
39.54,0.11
39.544,0.11
39.548,0.115
39.552,0.1
39.556,0.115
39.56,0.125
39.564,0.12
39.568,0.11
39.572,0.12
39.576,0.14
39.58,0.14
39.584,0.14
39.588,0.145
39.592,0.155
39.596,0.16
39.6,0.15
39.604,0.155
39.608,0.165
39.612,0.16
39.616,0.17
39.62,0.18
39.624,0.19
39.628,0.19
39.632,0.195
39.636,0.195
39.64,0.21
39.644,0.22
39.648,0.23
39.652,0.225
39.656,0.23
39.66,0.235
39.664,0.23
39.668,0.225
39.672,0.23
39.676,0.23
39.68,0.22
39.684,0.215
39.688,0.21
39.692,0.2
39.696,0.2
39.7,0.195
39.704,0.185
39.708,0.175
39.712,0.17
39.716,0.13
39.72,0.12
39.724,0.12
39.728,0.1
39.732,0.085
39.736,0.08
39.74,0.06
39.744,0.045
39.748,0.035
39.752,0.02
39.756,0.015
39.76,0.005
39.764,0.005
39.768,0.015
39.772,-0.0
39.776,-0.0
39.78,0.01
39.784,-0.0
39.788,0.005
39.792,-0.0
39.796,-0.0
39.8,0.015
39.804,-0.0
39.808,0.015
39.812,0.005
39.816,0.005
39.82,0.015
39.824,0.005
39.828,0.015
39.832,0.015
39.836,0.01
39.84,0.015
39.844,0.015
39.848,0.02
39.852,0.02
39.856,0.025
39.86,0.015
39.864,0.025
39.868,0.025
39.872,0.035
39.876,0.03
39.88,0.03
39.884,0.03
39.888,0.035
39.892,0.04
39.896,0.04
39.9,0.035
39.904,0.03
39.908,0.03
39.912,0.035
39.916,0.04
39.92,0.04
39.924,0.035
39.928,0.04
39.932,0.04
39.936,0.04
39.94,0.04
39.944,0.04
39.948,0.04
39.952,0.04
39.956,0.055
39.96,0.045
39.964,0.05
39.968,0.04
39.972,0.05
39.976,0.05
39.98,0.06
39.984,0.045
39.988,0.06
39.992,0.055
39.996,0.06
40.0,0.06
40.004,0.06
40.008,0.06
40.012,0.06
40.016,0.065
40.02,0.07
40.024,0.065
40.028,0.06
40.032,0.06
40.036,0.08
40.04,0.065
40.044,0.075
40.048,0.07
40.052,0.075
40.056,0.08
40.06,0.08
40.064,0.08
40.068,0.075
40.072,0.085
40.076,0.08
40.08,0.08
40.084,0.08
40.088,0.08
40.092,0.08
40.096,0.065
40.1,0.065
40.104,0.08
40.108,0.07
40.112,0.08
40.116,0.075
40.12,0.08
40.124,0.075
40.128,0.075
40.132,0.095
40.136,0.085
40.14,0.075
40.144,0.08
40.148,0.075
40.152,0.08
40.156,0.08
40.16,0.08
40.164,0.08
40.168,0.08
40.172,0.08
40.176,0.095
40.18,0.085
40.184,0.095
40.188,0.095
40.192,0.08
40.196,0.08
40.2,0.085
40.204,0.08
40.208,0.08
40.212,0.08
40.216,0.08
40.22,0.09
40.224,0.09
40.228,0.11
40.232,0.1
40.236,0.1
40.24,0.095
40.244,0.115
40.248,0.11
40.252,0.12
40.256,0.14
40.26,0.135
40.264,0.14
40.268,0.15
40.272,0.135
40.276,0.13
40.28,0.12
40.284,0.14
40.288,0.13
40.292,0.12
40.296,0.105
40.3,0.115
40.304,0.11
40.308,0.1
40.312,0.1
40.316,0.095
40.32,0.08
40.324,0.09
40.328,0.08
40.332,0.08
40.336,0.08
40.34,0.1
40.344,0.085
40.348,0.09
40.352,0.085
40.356,0.095
40.36,0.1
40.364,0.08
40.368,0.095
40.372,0.09
40.376,0.09
40.38,0.08
40.384,0.08
40.388,0.125
40.392,0.155
40.396,0.205
40.4,0.315
40.404,0.46
40.408,0.645
40.412,0.82
40.416,0.88
40.42,0.75
40.424,0.485
40.428,0.125
40.432,-0.22
40.436,-0.33
40.44,-0.34
40.444,-0.225
40.448,-0.14
40.452,-0.07
40.456,-0.03
40.46,0.015
40.464,0.045
40.468,0.07
40.472,0.075
40.476,0.085
40.48,0.065
40.484,0.07
40.488,0.085
40.492,0.07
40.496,0.08
40.5,0.09
40.504,0.075
40.508,0.08
40.512,0.085
40.516,0.1
40.52,0.095
40.524,0.1
40.528,0.105
40.532,0.115
40.536,0.125
40.54,0.115
40.544,0.12
40.548,0.125
40.552,0.12
40.556,0.13
40.56,0.125
40.564,0.125
40.568,0.12
40.572,0.14
40.576,0.135
40.58,0.145
40.584,0.14
40.588,0.155
40.592,0.17
40.596,0.15
40.6,0.165
40.604,0.17
40.608,0.18
40.612,0.185
40.616,0.19
40.62,0.2
40.624,0.205
40.628,0.21
40.632,0.215
40.636,0.23
40.64,0.225
40.644,0.23
40.648,0.235
40.652,0.23
40.656,0.23
40.66,0.235
40.664,0.23
40.668,0.22
40.672,0.225
40.676,0.215
40.68,0.225
40.684,0.22
40.688,0.215
40.692,0.205
40.696,0.185
40.7,0.18
40.704,0.165
40.708,0.155
40.712,0.14
40.716,0.125
40.72,0.11
40.724,0.095
40.728,0.085
40.732,0.06
40.736,0.06
40.74,0.04
40.744,0.02
40.748,0.02
40.752,0.005
40.756,0.02
40.76,-0.0
40.764,0.01
40.768,-0.0
40.772,-0.015
40.776,-0.0
40.78,-0.0
40.784,-0.005
40.788,-0.0
40.792,-0.0
40.796,-0.01
40.8,-0.0
40.804,-0.01
40.808,-0.005
40.812,-0.0
40.816,-0.01
40.82,-0.0
40.824,-0.0
40.828,-0.0
40.832,-0.0
40.836,0.005
40.84,0.015
40.844,0.015
40.848,0.02
40.852,-0.0
40.856,0.03
40.86,0.02
40.864,0.02
40.868,0.04
40.872,0.02
40.876,0.03
40.88,0.03
40.884,0.04
40.888,0.025
40.892,0.04
40.896,0.035
40.9,0.035
40.904,0.045
40.908,0.035
40.912,0.035
40.916,0.05
40.92,0.055
40.924,0.05
40.928,0.045
40.932,0.05
40.936,0.045
40.94,0.06
40.944,0.045
40.948,0.045
40.952,0.04
40.956,0.05
40.96,0.06
40.964,0.06
40.968,0.055
40.972,0.06
40.976,0.045
40.98,0.06
40.984,0.06
40.988,0.06
40.992,0.065
40.996,0.06
41.0,0.06
41.004,0.07
41.008,0.065
41.012,0.055
41.016,0.07
41.02,0.06
41.024,0.07
41.028,0.07
41.032,0.065
41.036,0.07
41.04,0.07
41.044,0.075
41.048,0.045
41.052,0.05
41.056,0.07
41.06,0.065
41.064,0.06
41.068,0.06
41.072,0.06
41.076,0.06
41.08,0.06
41.084,0.07
41.088,0.075
41.092,0.065
41.096,0.07
41.1,0.06
41.104,0.075
41.108,0.06
41.112,0.08
41.116,0.06
41.12,0.08
41.124,0.06
41.128,0.08
41.132,0.07
41.136,0.08
41.14,0.07
41.144,0.07
41.148,0.08
41.152,0.08
41.156,0.095
41.16,0.08
41.164,0.08
41.168,0.08
41.172,0.095
41.176,0.095
41.18,0.095
41.184,0.11
41.188,0.08
41.192,0.085
41.196,0.095
41.2,0.1
41.204,0.125
41.208,0.14
41.212,0.145
41.216,0.145
41.22,0.135
41.224,0.155
41.228,0.14
41.232,0.125
41.236,0.12
41.24,0.13
41.244,0.12
41.248,0.11
41.252,0.1
41.256,0.11
41.26,0.1
41.264,0.085
41.268,0.085
41.272,0.075
41.276,0.065
41.28,0.085
41.284,0.075
41.288,0.08
41.292,0.08
41.296,0.09
41.3,0.08
41.304,0.08
41.308,0.085
41.312,0.08
41.316,0.07
41.32,0.075
41.324,0.07
41.328,0.075
41.332,0.08
41.336,0.08
41.34,0.12
41.344,0.14
41.348,0.22
41.352,0.32
41.356,0.455
41.36,0.655
41.364,0.81
41.368,0.865
41.372,0.71
41.376,0.44
41.38,0.085
41.384,-0.22
41.388,-0.34
41.392,-0.325
41.396,-0.21
41.4,-0.125
41.404,-0.055
41.408,-0.02
41.412,0.015
41.416,0.045
41.42,0.06
41.424,0.065
41.428,0.06
41.432,0.065
41.436,0.065
41.44,0.075
41.444,0.085
41.448,0.08
41.452,0.09
41.456,0.095
41.46,0.095
41.464,0.08
41.468,0.095
41.472,0.1
41.476,0.095
41.48,0.11
41.484,0.105
41.488,0.115
41.492,0.115
41.496,0.105
41.5,0.125
41.504,0.12
41.508,0.125
41.512,0.125
41.516,0.12
41.52,0.13
41.524,0.14
41.528,0.15
41.532,0.15
41.536,0.16
41.54,0.16
41.544,0.155
41.548,0.165
41.552,0.175
41.556,0.19
41.56,0.19
41.564,0.175
41.568,0.19
41.572,0.18
41.576,0.205
41.58,0.205
41.584,0.22
41.588,0.225
41.592,0.225
41.596,0.22
41.6,0.24
41.604,0.245
41.608,0.23
41.612,0.24
41.616,0.235
41.62,0.225
41.624,0.23
41.628,0.22
41.632,0.22
41.636,0.21
41.64,0.21
41.644,0.185
41.648,0.18
41.652,0.175
41.656,0.155
41.66,0.16
41.664,0.14
41.668,0.1
41.672,0.08
41.676,0.07
41.68,0.07
41.684,0.05
41.688,0.035
41.692,0.03
41.696,0.02
41.7,0.015
41.704,-0.0
41.708,-0.005
41.712,-0.0
41.716,-0.005
41.72,-0.02
41.724,-0.0
41.728,-0.02
41.732,-0.01
41.736,-0.025
41.74,-0.01
41.744,-0.015
41.748,-0.005
41.752,-0.005
41.756,-0.005
41.76,-0.005
41.764,-0.0
41.768,-0.01
41.772,0.005
41.776,0.005
41.78,-0.0
41.784,0.005
41.788,0.02
41.792,0.02
41.796,0.02
41.8,0.02
41.804,0.02
41.808,0.025
41.812,0.02
41.816,0.035
41.82,0.03
41.824,0.04
41.828,0.05
41.832,0.04
41.836,0.04
41.84,0.045
41.844,0.035
41.848,0.055
41.852,0.04
41.856,0.045
41.86,0.06
41.864,0.045
41.868,0.05
41.872,0.04
41.876,0.06
41.88,0.055
41.884,0.05
41.888,0.06
41.892,0.065
41.896,0.055
41.9,0.05
41.904,0.055
41.908,0.055
41.912,0.045
41.916,0.055
41.92,0.06
41.924,0.05
41.928,0.06
41.932,0.045
41.936,0.06
41.94,0.055
41.944,0.06
41.948,0.065
41.952,0.055
41.956,0.065
41.96,0.06
41.964,0.06
41.968,0.055
41.972,0.06
41.976,0.055
41.98,0.07
41.984,0.06
41.988,0.07
41.992,0.07
41.996,0.07
42.0,0.065
42.004,0.055
42.008,0.06
42.012,0.06
42.016,0.07
42.02,0.06
42.024,0.05
42.028,0.075
42.032,0.07
42.036,0.055
42.04,0.07
42.044,0.08
42.048,0.07
42.052,0.06
42.056,0.075
42.06,0.08
42.064,0.085
42.068,0.08
42.072,0.09
42.076,0.07
42.08,0.07
42.084,0.085
42.088,0.08
42.092,0.085
42.096,0.08
42.1,0.1
42.104,0.1
42.108,0.095
42.112,0.11
42.116,0.12
42.12,0.11
42.124,0.1
42.128,0.11
42.132,0.13
42.136,0.135
42.14,0.145
42.144,0.14
42.148,0.145
42.152,0.15
42.156,0.15
42.16,0.145
42.164,0.13
42.168,0.15
42.172,0.115
42.176,0.12
42.18,0.105
42.184,0.095
42.188,0.11
42.192,0.08
42.196,0.08
42.2,0.06
42.204,0.08
42.208,0.07
42.212,0.09
42.216,0.075
42.22,0.08
42.224,0.07
42.228,0.085
42.232,0.07
42.236,0.08
42.24,0.08
42.244,0.085
42.248,0.085
42.252,0.08
42.256,0.07
42.26,0.085
42.264,0.08
42.268,0.08
42.272,0.13
42.276,0.16
42.28,0.23
42.284,0.36
42.288,0.56
42.292,0.775
42.296,0.9
42.3,0.925
42.304,0.67
42.308,0.295
42.312,-0.1
42.316,-0.3
42.32,-0.395
42.324,-0.325
42.328,-0.215
42.332,-0.13
42.336,-0.08
42.34,-0.015
42.344,0.02
42.348,0.06
42.352,0.075
42.356,0.06
42.36,0.075
42.364,0.07
42.368,0.06
42.372,0.08
42.376,0.085
42.38,0.075
42.384,0.09
42.388,0.08
42.392,0.085
42.396,0.085
42.4,0.1
42.404,0.1
42.408,0.11
42.412,0.11
42.416,0.115
42.42,0.12
42.424,0.115
42.428,0.12
42.432,0.125
42.436,0.13
42.44,0.13
42.444,0.125
42.448,0.14
42.452,0.145
42.456,0.15
42.46,0.16
42.464,0.14
42.468,0.165
42.472,0.16
42.476,0.17
42.48,0.17
42.484,0.175
42.488,0.185
42.492,0.185
42.496,0.19
42.5,0.2
42.504,0.215
42.508,0.215
42.512,0.2
42.516,0.23
42.52,0.225
42.524,0.23
42.528,0.235
42.532,0.24
42.536,0.23
42.54,0.25
42.544,0.255
42.548,0.245
42.552,0.24
42.556,0.24
42.56,0.225
42.564,0.225
42.568,0.22
42.572,0.22
42.576,0.205
42.58,0.205
42.584,0.19
42.588,0.155
42.592,0.16
42.596,0.125
42.6,0.125
42.604,0.09
42.608,0.08
42.612,0.07
42.616,0.045
42.62,0.035
42.624,0.025
42.628,0.02
42.632,-0.0
42.636,-0.0
42.64,-0.0
42.644,-0.0
42.648,-0.01
42.652,-0.0
42.656,-0.01
42.66,-0.01
42.664,-0.005
42.668,-0.01
42.672,-0.0
42.676,-0.0
42.68,-0.005
42.684,0.005
42.688,0.015
42.692,0.005
42.696,-0.0
42.7,0.015
42.704,0.02
42.708,0.01
42.712,0.01
42.716,0.02
42.72,0.03
42.724,0.03
42.728,0.03
42.732,0.035
42.736,0.04
42.74,0.04
42.744,0.04
42.748,0.045
42.752,0.045
42.756,0.04
42.76,0.045
42.764,0.055
42.768,0.055
42.772,0.05
42.776,0.055
42.78,0.05
42.784,0.04
42.788,0.06
42.792,0.05
42.796,0.06
42.8,0.06
42.804,0.04
42.808,0.055
42.812,0.055
42.816,0.045
42.82,0.07
42.824,0.055
42.828,0.06
42.832,0.045
42.836,0.05
42.84,0.055
42.844,0.07
42.848,0.06
42.852,0.045
42.856,0.06
42.86,0.05
42.864,0.06
42.868,0.055
42.872,0.06
42.876,0.05
42.88,0.07
42.884,0.06
42.888,0.065
42.892,0.06
42.896,0.075
42.9,0.06
42.904,0.06
42.908,0.07
42.912,0.06
42.916,0.06
42.92,0.06
42.924,0.08
42.928,0.06
42.932,0.06
42.936,0.065
42.94,0.07
42.944,0.055
42.948,0.07
42.952,0.075
42.956,0.065
42.96,0.08
42.964,0.075
42.968,0.075
42.972,0.075
42.976,0.075
42.98,0.075
42.984,0.085
42.988,0.085
42.992,0.085
42.996,0.085
43.0,0.08
43.004,0.08
43.008,0.105
43.012,0.075
43.016,0.09
43.02,0.095
43.024,0.105
43.028,0.105
43.032,0.1
43.036,0.115
43.04,0.12
43.044,0.11
43.048,0.13
43.052,0.12
43.056,0.135
43.06,0.13
43.064,0.145
43.068,0.165
43.072,0.16
43.076,0.14
43.08,0.155
43.084,0.135
43.088,0.13
43.092,0.145
43.096,0.12
43.1,0.115
43.104,0.105
43.108,0.11
43.112,0.105
43.116,0.1
43.12,0.105
43.124,0.09
43.128,0.065
43.132,0.06
43.136,0.065
43.14,0.06
43.144,0.07
43.148,0.08
43.152,0.06
43.156,0.08
43.16,0.08
43.164,0.08
43.168,0.075
43.172,0.065
43.176,0.07
43.18,0.08
43.184,0.08
43.188,0.075
43.192,0.075
43.196,0.12
43.2,0.155
43.204,0.22
43.208,0.345
43.212,0.51
43.216,0.74
43.22,0.895
43.224,0.955
43.228,0.725
43.232,0.38
43.236,-0.01
43.24,-0.28
43.244,-0.385
43.248,-0.35
43.252,-0.235
43.256,-0.13
43.26,-0.08
43.264,-0.02
43.268,0.005
43.272,0.045
43.276,0.07
43.28,0.065
43.284,0.065
43.288,0.07
43.292,0.06
43.296,0.075
43.3,0.08
43.304,0.09
43.308,0.095
43.312,0.1
43.316,0.085
43.32,0.095
43.324,0.1
43.328,0.1
43.332,0.105
43.336,0.115
43.34,0.115
43.344,0.125
43.348,0.105
43.352,0.12
43.356,0.12
43.36,0.12
43.364,0.125
43.368,0.12
43.372,0.14
43.376,0.145
43.38,0.15
43.384,0.15
43.388,0.16
43.392,0.16
43.396,0.155
43.4,0.16
43.404,0.165
43.408,0.185
43.412,0.185
43.416,0.2
43.42,0.195
43.424,0.2
43.428,0.21
43.432,0.205
43.436,0.2
43.44,0.21
43.444,0.22
43.448,0.23
43.452,0.225
43.456,0.225
43.46,0.24
43.464,0.235
43.468,0.235
43.472,0.24
43.476,0.23
43.48,0.23
43.484,0.24
43.488,0.22
43.492,0.215
43.496,0.22
43.5,0.205
43.504,0.19
43.508,0.175
43.512,0.16
43.516,0.14
43.52,0.135
43.524,0.12
43.528,0.105
43.532,0.085
43.536,0.06
43.54,0.075
43.544,0.045
43.548,0.02
43.552,0.02
43.556,0.015
43.56,-0.0
43.564,-0.0
43.568,-0.0
43.572,-0.01
43.576,-0.0
43.58,-0.005
43.584,-0.015
43.588,-0.02
43.592,-0.01
43.596,-0.005
43.6,-0.0
43.604,-0.0
43.608,-0.0
43.612,-0.0
43.616,0.005
43.62,-0.0
43.624,0.02
43.628,0.015
43.632,0.02
43.636,0.03
43.64,0.02
43.644,0.02
43.648,0.025
43.652,0.02
43.656,0.04
43.66,0.02
43.664,0.04
43.668,0.03
43.672,0.04
43.676,0.04
43.68,0.04
43.684,0.05
43.688,0.04
43.692,0.04
43.696,0.05
43.7,0.04
43.704,0.05
43.708,0.045
43.712,0.05
43.716,0.05
43.72,0.04
43.724,0.06
43.728,0.055
43.732,0.05
43.736,0.05
43.74,0.055
43.744,0.055
43.748,0.055
43.752,0.035
43.756,0.055
43.76,0.05
43.764,0.05
43.768,0.05
43.772,0.05
43.776,0.045
43.78,0.06
43.784,0.04
43.788,0.06
43.792,0.05
43.796,0.055
43.8,0.065
43.804,0.06
43.808,0.06
43.812,0.07
43.816,0.055
43.82,0.055
43.824,0.06
43.828,0.06
43.832,0.075
43.836,0.055
43.84,0.06
43.844,0.06
43.848,0.06
43.852,0.06
43.856,0.055
43.86,0.065
43.864,0.065
43.868,0.06
43.872,0.075
43.876,0.075
43.88,0.07
43.884,0.06
43.888,0.075
43.892,0.065
43.896,0.07
43.9,0.08
43.904,0.08
43.908,0.08
43.912,0.075
43.916,0.085
43.92,0.08
43.924,0.08
43.928,0.08
43.932,0.08
43.936,0.08
43.94,0.08
43.944,0.085
43.948,0.095
43.952,0.095
43.956,0.11
43.96,0.12
43.964,0.115
43.968,0.115
43.972,0.125
43.976,0.135
43.98,0.135
43.984,0.145
43.988,0.16
43.992,0.145
43.996,0.15
44.0,0.14
44.004,0.14
44.008,0.135
44.012,0.135
44.016,0.13
44.02,0.12
44.024,0.115
44.028,0.105
44.032,0.105
44.036,0.095
44.04,0.095
44.044,0.085
44.048,0.06
44.052,0.06
44.056,0.065
44.06,0.06
44.064,0.075
44.068,0.08
44.072,0.075
44.076,0.065
44.08,0.07
44.084,0.075
44.088,0.065
44.092,0.06
44.096,0.06
44.1,0.08
44.104,0.075
44.108,0.075
44.112,0.07
44.116,0.115
44.12,0.14
44.124,0.21
44.128,0.32
44.132,0.5
44.136,0.72
44.14,0.885
44.144,0.95
44.148,0.715
44.152,0.39
44.156,0.01
44.16,-0.28
44.164,-0.385
44.168,-0.36
44.172,-0.255
44.176,-0.155
44.18,-0.085
44.184,-0.04
44.188,0.005
44.192,0.045
44.196,0.065
44.2,0.065
44.204,0.085
44.208,0.06
44.212,0.07
44.216,0.08
44.22,0.08
44.224,0.08
44.228,0.09
44.232,0.095
44.236,0.1
44.24,0.1
44.244,0.1
44.248,0.11
44.252,0.105
44.256,0.12
44.26,0.13
44.264,0.125
44.268,0.125
44.272,0.12
44.276,0.13
44.28,0.125
44.284,0.14
44.288,0.14
44.292,0.14
44.296,0.14
44.3,0.15
44.304,0.145
44.308,0.155
44.312,0.15
44.316,0.17
44.32,0.165
44.324,0.17
44.328,0.17
44.332,0.19
44.336,0.18
44.34,0.2
44.344,0.2
44.348,0.195
44.352,0.195
44.356,0.205
44.36,0.215
44.364,0.225
44.368,0.22
44.372,0.23
44.376,0.24
44.38,0.235
44.384,0.245
44.388,0.25
44.392,0.23
44.396,0.24
44.4,0.235
44.404,0.225
44.408,0.22
44.412,0.215
44.416,0.22
44.42,0.205
44.424,0.2
44.428,0.18
44.432,0.165
44.436,0.14
44.44,0.13
44.444,0.12
44.448,0.115
44.452,0.075
44.456,0.055
44.46,0.06
44.464,0.04
44.468,0.025
44.472,0.005
44.476,0.025
44.48,0.01
44.484,-0.0
44.488,-0.0
44.492,-0.005
44.496,-0.005
44.5,-0.005
44.504,-0.0
44.508,-0.0
44.512,-0.0
44.516,-0.0
44.52,0.005
44.524,0.005
44.528,0.01
44.532,-0.0
44.536,-0.0
44.54,0.015
44.544,0.01
44.548,0.005
44.552,0.005
44.556,0.02
44.56,0.02
44.564,0.025
44.568,0.02
44.572,0.015
44.576,0.03
44.58,0.03
44.584,0.04
44.588,0.03
44.592,0.04
44.596,0.045
44.6,0.04
44.604,0.04
44.608,0.04
44.612,0.045
44.616,0.06
44.62,0.065
44.624,0.04
44.628,0.06
44.632,0.05
44.636,0.045
44.64,0.055
44.644,0.06
44.648,0.045
44.652,0.04
44.656,0.055
44.66,0.05
44.664,0.06
44.668,0.05
44.672,0.055
44.676,0.04
44.68,0.055
44.684,0.065
44.688,0.06
44.692,0.06
44.696,0.045
44.7,0.06
44.704,0.045
44.708,0.05
44.712,0.05
44.716,0.06
44.72,0.04
44.724,0.06
44.728,0.06
44.732,0.06
44.736,0.06
44.74,0.06
44.744,0.05
44.748,0.07
44.752,0.06
44.756,0.055
44.76,0.06
44.764,0.055
44.768,0.07
44.772,0.06
44.776,0.06
44.78,0.065
44.784,0.06
44.788,0.065
44.792,0.06
44.796,0.075
44.8,0.065
44.804,0.07
44.808,0.075
44.812,0.08
44.816,0.06
44.82,0.06
44.824,0.075
44.828,0.065
44.832,0.085
44.836,0.07
44.84,0.08
44.844,0.075
44.848,0.085
44.852,0.08
44.856,0.08
44.86,0.08
44.864,0.1
44.868,0.095
44.872,0.1
44.876,0.12
44.88,0.11
44.884,0.115
44.888,0.125
44.892,0.12
44.896,0.12
44.9,0.145
44.904,0.145
44.908,0.15
44.912,0.14
44.916,0.145
44.92,0.14
44.924,0.14
44.928,0.135
44.932,0.14
44.936,0.12
44.94,0.11
44.944,0.115
44.948,0.105
44.952,0.09
44.956,0.08
44.96,0.07
44.964,0.07
44.968,0.065
44.972,0.06
44.976,0.075
44.98,0.07
44.984,0.08
44.988,0.08
44.992,0.065
44.996,0.08
45.0,0.075
45.004,0.06
45.008,0.08
45.012,0.08
45.016,0.075
45.02,0.08
45.024,0.065
45.028,0.08
45.032,0.075
45.036,0.125
45.04,0.155
45.044,0.215
45.048,0.32
45.052,0.485
45.056,0.68
45.06,0.85
45.064,0.925
45.068,0.705
45.072,0.425
45.076,0.045
45.08,-0.25
45.084,-0.36
45.088,-0.365
45.092,-0.245
45.096,-0.145
45.1,-0.08
45.104,-0.04
45.108,-0.0
45.112,0.03
45.116,0.06
45.12,0.075
45.124,0.08
45.128,0.075
45.132,0.08
45.136,0.085
45.14,0.08
45.144,0.09
45.148,0.105
45.152,0.095
45.156,0.1
45.16,0.105
45.164,0.1
45.168,0.115
45.172,0.12
45.176,0.11
45.18,0.125
45.184,0.12
45.188,0.11
45.192,0.12
45.196,0.135
45.2,0.13
45.204,0.135
45.208,0.135
45.212,0.155
45.216,0.145
45.22,0.155
45.224,0.145
45.228,0.155
45.232,0.155
45.236,0.17
45.24,0.155
45.244,0.165
45.248,0.165
45.252,0.175
45.256,0.18
45.26,0.185
45.264,0.185
45.268,0.205
45.272,0.22
45.276,0.22
45.28,0.22
45.284,0.235
45.288,0.23
45.292,0.24
45.296,0.23
45.3,0.24
45.304,0.235
45.308,0.24
45.312,0.24
45.316,0.23
45.32,0.235
45.324,0.23
45.328,0.215
45.332,0.2
45.336,0.2
45.34,0.2
45.344,0.19
45.348,0.18
45.352,0.165
45.356,0.155
45.36,0.135
45.364,0.12
45.368,0.115
45.372,0.075
45.376,0.07
45.38,0.045
45.384,0.045
45.388,0.04
45.392,0.02
45.396,0.015
45.4,-0.0
45.404,0.005
45.408,0.005
45.412,-0.0
45.416,-0.0
45.42,-0.0
45.424,-0.0
45.428,0.01
45.432,-0.0
45.436,-0.0
45.44,-0.0
45.444,-0.0
45.448,0.015
45.452,-0.0
45.456,-0.0
45.46,0.015
45.464,0.02
45.468,0.005
45.472,0.015
45.476,0.03
45.48,0.025
45.484,0.025
45.488,0.025
45.492,0.02
45.496,0.03
45.5,0.03
45.504,0.025
45.508,0.035
45.512,0.04
45.516,0.035
45.52,0.055
45.524,0.045
45.528,0.04
45.532,0.05
45.536,0.04
45.54,0.04
45.544,0.055
45.548,0.06
45.552,0.06
45.556,0.045
45.56,0.05
45.564,0.06
45.568,0.065
45.572,0.05
45.576,0.05
45.58,0.055
45.584,0.055
45.588,0.04
45.592,0.055
45.596,0.055
45.6,0.045
45.604,0.05
45.608,0.045
45.612,0.05
45.616,0.04
45.62,0.06
45.624,0.05
45.628,0.06
45.632,0.045
45.636,0.05
45.64,0.04
45.644,0.06
45.648,0.065
45.652,0.055
45.656,0.06
45.66,0.05
45.664,0.06
45.668,0.06
45.672,0.055
45.676,0.055
45.68,0.06
45.684,0.055
45.688,0.04
45.692,0.055
45.696,0.065
45.7,0.06
45.704,0.075
45.708,0.075
45.712,0.08
45.716,0.07
45.72,0.07
45.724,0.06
45.728,0.085
45.732,0.065
45.736,0.08
45.74,0.08
45.744,0.095
45.748,0.065
45.752,0.075
45.756,0.095
45.76,0.09
45.764,0.095
45.768,0.1
45.772,0.105
45.776,0.095
45.78,0.1
45.784,0.12
45.788,0.105
45.792,0.145
45.796,0.12
45.8,0.14
45.804,0.12
45.808,0.14
45.812,0.13
45.816,0.13
45.82,0.105
45.824,0.115
45.828,0.11
45.832,0.12
45.836,0.1
45.84,0.11
45.844,0.09
45.848,0.095
45.852,0.08
45.856,0.06
45.86,0.065
45.864,0.065
45.868,0.065
45.872,0.08
45.876,0.075
45.88,0.065
45.884,0.07
45.888,0.065
45.892,0.06
45.896,0.06
45.9,0.075
45.904,0.07
45.908,0.08
45.912,0.065
45.916,0.095
45.92,0.06
45.924,0.1
45.928,0.14
45.932,0.195
45.936,0.26
45.94,0.415
45.944,0.6
45.948,0.775
45.952,0.86
45.956,0.8
45.96,0.55
45.964,0.165
45.968,-0.18
45.972,-0.32
45.976,-0.355
45.98,-0.265
45.984,-0.16
45.988,-0.08
45.992,-0.055
45.996,-0.0
46.0,0.045
46.004,0.06
46.008,0.065
46.012,0.075
46.016,0.07
46.02,0.065
46.024,0.08
46.028,0.08
46.032,0.085
46.036,0.08
46.04,0.08
46.044,0.095
46.048,0.095
46.052,0.105
46.056,0.095
46.06,0.095
46.064,0.105
46.068,0.11
46.072,0.11
46.076,0.105
46.08,0.12
46.084,0.13
46.088,0.13
46.092,0.13
46.096,0.12
46.1,0.12
46.104,0.13
46.108,0.14
46.112,0.145
46.116,0.15
46.12,0.145
46.124,0.165
46.128,0.175
46.132,0.17
46.136,0.15
46.14,0.165
46.144,0.165
46.148,0.175
46.152,0.19
46.156,0.195
46.16,0.2
46.164,0.2
46.168,0.225
46.172,0.215
46.176,0.215
46.18,0.215
46.184,0.22
46.188,0.22
46.192,0.22
46.196,0.23
46.2,0.225
46.204,0.22
46.208,0.245
46.212,0.23
46.216,0.205
46.22,0.215
46.224,0.22
46.228,0.21
46.232,0.18
46.236,0.165
46.24,0.165
46.244,0.145
46.248,0.135
46.252,0.11
46.256,0.1
46.26,0.09
46.264,0.06
46.268,0.06
46.272,0.055
46.276,0.02
46.28,0.02
46.284,0.015
46.288,0.02
46.292,-0.0
46.296,-0.0
46.3,0.015
46.304,-0.0
46.308,-0.005
46.312,-0.0
46.316,-0.0
46.32,-0.0
46.324,-0.0
46.328,-0.0
46.332,0.01
46.336,0.01
46.34,0.01
46.344,0.01
46.348,0.02
46.352,0.005
46.356,0.01
46.36,0.01
46.364,0.015
46.368,0.02
46.372,0.015
46.376,0.025
46.38,0.035
46.384,0.04
46.388,0.025
46.392,0.035
46.396,0.02
46.4,0.02
46.404,0.03
46.408,0.04
46.412,0.035
46.416,0.055
46.42,0.06
46.424,0.055
46.428,0.045
46.432,0.04
46.436,0.045
46.44,0.055
46.444,0.045
46.448,0.055
46.452,0.06
46.456,0.04
46.46,0.05
46.464,0.055
46.468,0.055
46.472,0.04
46.476,0.04
46.48,0.05
46.484,0.045
46.488,0.06
46.492,0.055
46.496,0.035
46.5,0.055
46.504,0.05
46.508,0.055
46.512,0.045
46.516,0.04
46.52,0.045
46.524,0.04
46.528,0.04
46.532,0.045
46.536,0.06
46.54,0.04
46.544,0.04
46.548,0.055
46.552,0.035
46.556,0.06
46.56,0.06
46.564,0.045
46.568,0.055
46.572,0.055
46.576,0.05
46.58,0.055
46.584,0.065
46.588,0.06
46.592,0.065
46.596,0.07
46.6,0.06
46.604,0.065
46.608,0.05
46.612,0.06
46.616,0.06
46.62,0.075
46.624,0.055
46.628,0.06
46.632,0.08
46.636,0.06
46.64,0.08
46.644,0.08
46.648,0.085
46.652,0.085
46.656,0.09
46.66,0.08
46.664,0.095
46.668,0.13
46.672,0.12
46.676,0.13
46.68,0.135
46.684,0.13
46.688,0.13
46.692,0.12
46.696,0.115
46.7,0.125
46.704,0.1
46.708,0.105
46.712,0.11
46.716,0.09
46.72,0.095
46.724,0.095
46.728,0.075
46.732,0.065
46.736,0.06
46.74,0.06
46.744,0.07
46.748,0.06
46.752,0.06
46.756,0.065
46.76,0.07
46.764,0.07
46.768,0.06
46.772,0.075
46.776,0.065
46.78,0.08
46.784,0.065
46.788,0.08
46.792,0.07
46.796,0.075
46.8,0.08
46.804,0.105
46.808,0.14
46.812,0.205
46.816,0.335
46.82,0.5
46.824,0.705
46.828,0.885
46.832,0.945
46.836,0.735
46.84,0.4
46.844,0.02
46.848,-0.295
46.852,-0.405
46.856,-0.35
46.86,-0.245
46.864,-0.14
46.868,-0.085
46.872,-0.03
46.876,0.01
46.88,0.04
46.884,0.06
46.888,0.06
46.892,0.06
46.896,0.045
46.9,0.06
46.904,0.06
46.908,0.075
46.912,0.07
46.916,0.08
46.92,0.08
46.924,0.085
46.928,0.085
46.932,0.095
46.936,0.09
46.94,0.1
46.944,0.11
46.948,0.095
46.952,0.105
46.956,0.11
46.96,0.115
46.964,0.125
46.968,0.12
46.972,0.12
46.976,0.12
46.98,0.135
46.984,0.14
46.988,0.13
46.992,0.145
46.996,0.145
47.0,0.16
47.004,0.15
47.008,0.16
47.012,0.16
47.016,0.18
47.02,0.18
47.024,0.185
47.028,0.18
47.032,0.185
47.036,0.2
47.04,0.2
47.044,0.21
47.048,0.205
47.052,0.225
47.056,0.225
47.06,0.24
47.064,0.245
47.068,0.255
47.072,0.255
47.076,0.24
47.08,0.24
47.084,0.255
47.088,0.24
47.092,0.225
47.096,0.24
47.1,0.22
47.104,0.205
47.108,0.22
47.112,0.195
47.116,0.19
47.12,0.175
47.124,0.16
47.128,0.14
47.132,0.12
47.136,0.095
47.14,0.09
47.144,0.065
47.148,0.035
47.152,0.03
47.156,0.03
47.16,0.01
47.164,0.015
47.168,-0.0
47.172,-0.0
47.176,-0.0
47.18,-0.0
47.184,-0.0
47.188,-0.0
47.192,-0.0
47.196,-0.01
47.2,-0.0
47.204,-0.0
47.208,-0.0
47.212,-0.0
47.216,-0.0
47.22,0.005
47.224,-0.0
47.228,-0.0
47.232,-0.0
47.236,0.005
47.24,0.01
47.244,-0.0
47.248,0.02
47.252,0.02
47.256,0.02
47.26,0.025
47.264,0.04
47.268,0.025
47.272,0.035
47.276,0.035
47.28,0.025
47.284,0.04
47.288,0.03
47.292,0.045
47.296,0.04
47.3,0.045
47.304,0.04
47.308,0.045
47.312,0.05
47.316,0.04
47.32,0.055
47.324,0.06
47.328,0.06
47.332,0.05
47.336,0.055
47.34,0.055
47.344,0.055
47.348,0.06
47.352,0.055
47.356,0.06
47.36,0.06
47.364,0.055
47.368,0.065
47.372,0.065
47.376,0.06
47.38,0.06
47.384,0.045
47.388,0.06
47.392,0.05
47.396,0.06
47.4,0.06
47.404,0.05
47.408,0.06
47.412,0.06
47.416,0.055
47.42,0.06
47.424,0.055
47.428,0.07
47.432,0.055
47.436,0.065
47.44,0.065
47.444,0.065
47.448,0.075
47.452,0.05
47.456,0.06
47.46,0.07
47.464,0.08
47.468,0.07
47.472,0.075
47.476,0.065
47.48,0.07
47.484,0.075
47.488,0.065
47.492,0.06
47.496,0.065
47.5,0.08
47.504,0.075
47.508,0.075
47.512,0.07
47.516,0.08
47.52,0.08
47.524,0.08
47.528,0.085
47.532,0.095
47.536,0.1
47.54,0.115
47.544,0.1
47.548,0.1
47.552,0.115
47.556,0.115
47.56,0.125
47.564,0.14
47.568,0.16
47.572,0.15
47.576,0.155
47.58,0.15
47.584,0.13
47.588,0.115
47.592,0.13
47.596,0.125
47.6,0.12
47.604,0.105
47.608,0.095
47.612,0.09
47.616,0.1
47.62,0.09
47.624,0.07
47.628,0.08
47.632,0.065
47.636,0.075
47.64,0.08
47.644,0.08
47.648,0.08
47.652,0.08
47.656,0.07
47.66,0.095
47.664,0.085
47.668,0.08
47.672,0.09
47.676,0.075
47.68,0.08
47.684,0.075
47.688,0.08
47.692,0.08
47.696,0.12
47.7,0.155
47.704,0.22
47.708,0.335
47.712,0.495
47.716,0.715
47.72,0.89
47.724,0.96
47.728,0.77
47.732,0.44
47.736,0.055
47.74,-0.27
47.744,-0.39
47.748,-0.375
47.752,-0.245
47.756,-0.15
47.76,-0.085
47.764,-0.035
47.768,0.02
47.772,0.05
47.776,0.05
47.78,0.07
47.784,0.07
47.788,0.06
47.792,0.075
47.796,0.065
47.8,0.08
47.804,0.08
47.808,0.09
47.812,0.08
47.816,0.1
47.82,0.095
47.824,0.095
47.828,0.1
47.832,0.1
47.836,0.115
47.84,0.1
47.844,0.105
47.848,0.12
47.852,0.11
47.856,0.12
47.86,0.12
47.864,0.125
47.868,0.125
47.872,0.135
47.876,0.14
47.88,0.15
47.884,0.15
47.888,0.15
47.892,0.16
47.896,0.155
47.9,0.18
47.904,0.165
47.908,0.185
47.912,0.18
47.916,0.2
47.92,0.19
47.924,0.21
47.928,0.205
47.932,0.215
47.936,0.22
47.94,0.215
47.944,0.21
47.948,0.235
47.952,0.245
47.956,0.245
47.96,0.255
47.964,0.24
47.968,0.235
47.972,0.24
47.976,0.255
47.98,0.245
47.984,0.24
47.988,0.24
47.992,0.235
47.996,0.215
48.0,0.215
48.004,0.205
48.008,0.185
48.012,0.18
48.016,0.15
48.02,0.14
48.024,0.135
48.028,0.115
48.032,0.08
48.036,0.08
48.04,0.055
48.044,0.06
48.048,0.035
48.052,0.02
48.056,0.015
48.06,0.005
48.064,-0.0
48.068,-0.0
48.072,-0.0
48.076,-0.0
48.08,-0.0
48.084,-0.0
48.088,-0.0
48.092,-0.0
48.096,-0.0
48.1,-0.0
48.104,-0.01
48.108,-0.0
48.112,-0.0
48.116,-0.0
48.12,-0.0
48.124,0.015
48.128,0.02
48.132,0.01
48.136,0.005
48.14,0.02
48.144,0.02
48.148,0.025
48.152,0.03
48.156,0.02
48.16,0.03
48.164,0.02
48.168,0.035
48.172,0.035
48.176,0.03
48.18,0.025
48.184,0.03
48.188,0.04
48.192,0.035
48.196,0.04
48.2,0.06
48.204,0.045
48.208,0.05
48.212,0.05
48.216,0.04
48.22,0.05
48.224,0.05
48.228,0.045
48.232,0.045
48.236,0.05
48.24,0.05
48.244,0.06
48.248,0.06
48.252,0.06
48.256,0.065
48.26,0.06
48.264,0.05
48.268,0.06
48.272,0.06
48.276,0.045
48.28,0.06
48.284,0.06
48.288,0.06
48.292,0.06
48.296,0.04
48.3,0.06
48.304,0.055
48.308,0.055
48.312,0.065
48.316,0.06
48.32,0.05
48.324,0.06
48.328,0.065
48.332,0.07
48.336,0.07
48.34,0.07
48.344,0.06
48.348,0.075
48.352,0.07
48.356,0.06
48.36,0.065
48.364,0.06
48.368,0.075
48.372,0.07
48.376,0.08
48.38,0.065
48.384,0.065
48.388,0.06
48.392,0.08
48.396,0.075
48.4,0.07
48.404,0.065
48.408,0.07
48.412,0.07
48.416,0.07
48.42,0.075
48.424,0.065
48.428,0.085
48.432,0.08
48.436,0.08
48.44,0.08
48.444,0.08
48.448,0.085
48.452,0.085
48.456,0.08
48.46,0.085
48.464,0.105
48.468,0.095
48.472,0.1
48.476,0.105
48.48,0.115
48.484,0.12
48.488,0.125
48.492,0.14
48.496,0.155
48.5,0.15
48.504,0.155
48.508,0.16
48.512,0.155
48.516,0.135
48.52,0.145
48.524,0.14
48.528,0.12
48.532,0.11
48.536,0.12
48.54,0.12
48.544,0.1
48.548,0.1
48.552,0.08
48.556,0.08
48.56,0.075
48.564,0.07
48.568,0.08
48.572,0.08
48.576,0.065
48.58,0.08
48.584,0.08
48.588,0.085
48.592,0.075
48.596,0.065
48.6,0.085
48.604,0.085
48.608,0.075
48.612,0.09
48.616,0.07
48.62,0.07
48.624,0.12
48.628,0.155
48.632,0.21
48.636,0.305
48.64,0.455
48.644,0.665
48.648,0.86
48.652,0.955
48.656,0.815
48.66,0.52
48.664,0.12
48.668,-0.24
48.672,-0.38
48.676,-0.38
48.68,-0.27
48.684,-0.175
48.688,-0.105
48.692,-0.045
48.696,-0.005
48.7,0.025
48.704,0.055
48.708,0.08
48.712,0.06
48.716,0.08
48.72,0.06
48.724,0.07
48.728,0.08
48.732,0.08
48.736,0.085
48.74,0.09
48.744,0.09
48.748,0.1
48.752,0.095
48.756,0.1
48.76,0.1
48.764,0.095
48.768,0.12
48.772,0.1
48.776,0.12
48.78,0.115
48.784,0.12
48.788,0.135
48.792,0.115
48.796,0.12
48.8,0.145
48.804,0.14
48.808,0.14
48.812,0.145
48.816,0.15
48.82,0.17
48.824,0.16
48.828,0.175
48.832,0.175
48.836,0.175
48.84,0.18
48.844,0.19
48.848,0.185
48.852,0.195
48.856,0.195
48.86,0.2
48.864,0.215
48.868,0.23
48.872,0.22
48.876,0.225
48.88,0.23
48.884,0.245
48.888,0.245
48.892,0.24
48.896,0.24
48.9,0.235
48.904,0.23
48.908,0.225
48.912,0.225
48.916,0.215
48.92,0.23
48.924,0.2
48.928,0.2
48.932,0.2
48.936,0.185
48.94,0.17
48.944,0.165
48.948,0.14
48.952,0.12
48.956,0.125
48.96,0.1
48.964,0.085
48.968,0.07
48.972,0.055
48.976,0.045
48.98,0.025
48.984,0.03
48.988,0.02
48.992,0.01
48.996,-0.0
49.0,-0.0
49.004,-0.015
49.008,-0.01
49.012,-0.015
49.016,-0.015
49.02,-0.015
49.024,-0.005
49.028,-0.0
49.032,0.005
49.036,-0.02
49.04,-0.0
49.044,0.005
49.048,-0.0
49.052,-0.0
49.056,0.01
49.06,0.01
49.064,-0.0
49.068,0.015
49.072,0.025
49.076,0.02
49.08,0.02
49.084,0.02
49.088,0.02
49.092,0.025
49.096,0.02
49.1,0.035
49.104,0.04
49.108,0.035
49.112,0.035
49.116,0.045
49.12,0.04
49.124,0.04
49.128,0.04
49.132,0.05
49.136,0.045
49.14,0.05
49.144,0.05
49.148,0.04
49.152,0.06
49.156,0.06
49.16,0.055
49.164,0.05
49.168,0.05
49.172,0.05
49.176,0.05
49.18,0.045
49.184,0.05
49.188,0.055
49.192,0.05
49.196,0.055
49.2,0.06
49.204,0.045
49.208,0.06
49.212,0.055
49.216,0.055
49.22,0.05
49.224,0.05
49.228,0.055
49.232,0.06
49.236,0.055
49.24,0.06
49.244,0.06
49.248,0.055
49.252,0.055
49.256,0.06
49.26,0.06
49.264,0.055
49.268,0.065
49.272,0.055
49.276,0.05
49.28,0.06
49.284,0.065
49.288,0.06
49.292,0.07
49.296,0.07
49.3,0.065
49.304,0.07
49.308,0.05
49.312,0.06
49.316,0.065
49.32,0.055
49.324,0.07
49.328,0.07
49.332,0.08
49.336,0.075
49.34,0.07
49.344,0.07
49.348,0.075
49.352,0.07
49.356,0.065
49.36,0.08
49.364,0.075
49.368,0.08
49.372,0.08
49.376,0.08
49.38,0.1
49.384,0.085
49.388,0.095
49.392,0.095
49.396,0.095
49.4,0.09
49.404,0.1
49.408,0.09
49.412,0.1
49.416,0.1
49.42,0.085
49.424,0.11
49.428,0.115
49.432,0.115
49.436,0.12
49.44,0.12
49.444,0.125
49.448,0.13
49.452,0.135
49.456,0.145
49.46,0.155
49.464,0.145
49.468,0.15
49.472,0.15
49.476,0.15
49.48,0.14
49.484,0.14
49.488,0.135
49.492,0.13
49.496,0.115
49.5,0.11
49.504,0.115
49.508,0.09
49.512,0.1
49.516,0.08
49.52,0.07
49.524,0.065
49.528,0.08
49.532,0.065
49.536,0.08
49.54,0.075
49.544,0.075
49.548,0.08
49.552,0.07
49.556,0.08
49.56,0.065
49.564,0.08
49.568,0.08
49.572,0.075
49.576,0.075
49.58,0.08
49.584,0.065
49.588,0.095
49.592,0.135
49.596,0.16
49.6,0.26
49.604,0.395
49.608,0.575
49.612,0.78
49.616,0.9
49.62,0.895
49.624,0.63
49.628,0.255
49.632,-0.15
49.636,-0.325
49.64,-0.405
49.644,-0.33
49.648,-0.22
49.652,-0.12
49.656,-0.06
49.66,-0.0
49.664,0.02
49.668,0.055
49.672,0.07
49.676,0.08
49.68,0.06
49.684,0.065
49.688,0.08
49.692,0.065
49.696,0.08
49.7,0.09
49.704,0.095
49.708,0.095
49.712,0.09
49.716,0.1
49.72,0.105
49.724,0.1
49.728,0.115
49.732,0.12
49.736,0.105
49.74,0.12
49.744,0.125
49.748,0.125
49.752,0.135
49.756,0.14
49.76,0.145
49.764,0.135
49.768,0.14
49.772,0.135
49.776,0.16
49.78,0.145
49.784,0.17
49.788,0.16
49.792,0.155
49.796,0.16
49.8,0.18
49.804,0.175
49.808,0.18
49.812,0.18
49.816,0.195
49.82,0.2
49.824,0.2
49.828,0.195
49.832,0.2
49.836,0.215
49.84,0.215
49.844,0.225
49.848,0.22
49.852,0.23
49.856,0.225
49.86,0.225
49.864,0.225
49.868,0.24
49.872,0.22
49.876,0.205
49.88,0.21
49.884,0.205
49.888,0.21
49.892,0.21
49.896,0.195
49.9,0.18
49.904,0.175
49.908,0.155
49.912,0.15
49.916,0.125
49.92,0.11
49.924,0.1
49.928,0.09
49.932,0.06
49.936,0.06
49.94,0.04
49.944,0.04
49.948,0.03
49.952,0.01
49.956,0.015
49.96,0.01
49.964,0.005
49.968,0.01
49.972,0.005
49.976,0.01
49.98,0.01
49.984,0.01
49.988,0.005
49.992,0.01
49.996,0.01
50.0,-0.0
50.004,-0.0
50.008,0.01
50.012,0.015
50.016,0.025
50.02,0.015
50.024,0.025
50.028,0.02
50.032,0.03
50.036,0.025
50.04,0.03
50.044,0.035
50.048,0.025
50.052,0.04
50.056,0.04
50.06,0.03
50.064,0.05
50.068,0.045
50.072,0.04
50.076,0.04
50.08,0.05
50.084,0.045
50.088,0.045
50.092,0.04
50.096,0.045
50.1,0.055
50.104,0.05
50.108,0.035
50.112,0.04
50.116,0.055
50.12,0.06
50.124,0.06
50.128,0.04
50.132,0.06
50.136,0.03
50.14,0.04
50.144,0.055
50.148,0.045
50.152,0.06
50.156,0.055
50.16,0.06
50.164,0.055
50.168,0.065
50.172,0.045
50.176,0.05
50.18,0.045
50.184,0.045
50.188,0.045
50.192,0.05
50.196,0.04
50.2,0.06
50.204,0.05
50.208,0.05
50.212,0.06
50.216,0.06
50.22,0.06
50.224,0.06
50.228,0.07
50.232,0.065
50.236,0.06
50.24,0.08
50.244,0.075
50.248,0.07
50.252,0.07
50.256,0.065
50.26,0.075
50.264,0.065
50.268,0.075
50.272,0.08
50.276,0.08
50.28,0.07
50.284,0.06
50.288,0.075
50.292,0.08
50.296,0.07
50.3,0.08
50.304,0.08
50.308,0.095
50.312,0.085
50.316,0.095
50.32,0.095
50.324,0.08
50.328,0.095
50.332,0.1
50.336,0.08
50.34,0.09
50.344,0.085
50.348,0.08
50.352,0.09
50.356,0.095
50.36,0.085
50.364,0.08
50.368,0.095
50.372,0.09
50.376,0.085
50.38,0.095
50.384,0.105
50.388,0.11
50.392,0.11
50.396,0.12
50.4,0.12
50.404,0.125
50.408,0.11
50.412,0.125
50.416,0.14
50.42,0.155
50.424,0.14
50.428,0.16
50.432,0.14
50.436,0.145
50.44,0.14
50.444,0.14
50.448,0.14
50.452,0.14
50.456,0.125
50.46,0.115
50.464,0.1
50.468,0.1
50.472,0.11
50.476,0.09
50.48,0.085
50.484,0.06
50.488,0.07
50.492,0.07
50.496,0.07
50.5,0.07
50.504,0.075
50.508,0.065
50.512,0.06
50.516,0.07
50.52,0.065
50.524,0.08
50.528,0.06
50.532,0.08
50.536,0.08
50.54,0.08
50.544,0.08
50.548,0.075
50.552,0.095
50.556,0.145
50.56,0.185
50.564,0.27
50.568,0.41
50.572,0.58
50.576,0.77
50.58,0.86
50.584,0.855
50.588,0.595
50.592,0.24
50.596,-0.13
50.6,-0.32
50.604,-0.38
50.608,-0.3
50.612,-0.18
50.616,-0.095
50.62,-0.04
50.624,-0.02
50.628,0.04
50.632,0.08
50.636,0.075
50.64,0.085
50.644,0.09
50.648,0.085
50.652,0.1
50.656,0.09
50.66,0.085
50.664,0.095
50.668,0.1
50.672,0.105
50.676,0.1
50.68,0.1
50.684,0.11
50.688,0.12
50.692,0.115
50.696,0.12
50.7,0.125
50.704,0.12
50.708,0.115
50.712,0.11
50.716,0.12
50.72,0.125
50.724,0.125
50.728,0.135
50.732,0.135
50.736,0.14
50.74,0.14
50.744,0.13
50.748,0.14
50.752,0.16
50.756,0.155
50.76,0.16
50.764,0.175
50.768,0.175
50.772,0.185
50.776,0.185
50.78,0.195
50.784,0.2
50.788,0.195
50.792,0.2
50.796,0.21
50.8,0.205
50.804,0.22
50.808,0.22
50.812,0.21
50.816,0.23
50.82,0.225
50.824,0.225
50.828,0.2
50.832,0.22
50.836,0.225
50.84,0.205
50.844,0.22
50.848,0.22
50.852,0.22
50.856,0.2
50.86,0.19
50.864,0.18
50.868,0.175
50.872,0.15
50.876,0.14
50.88,0.125
50.884,0.115
50.888,0.1
50.892,0.095
50.896,0.06
50.9,0.065
50.904,0.04
50.908,0.03
50.912,0.025
50.916,0.02
50.92,-0.0
50.924,0.015
50.928,0.02
50.932,-0.0
50.936,0.02
50.94,-0.0
50.944,0.01
50.948,-0.0
50.952,-0.0
50.956,-0.0
50.96,0.01
50.964,0.015
50.968,-0.0
50.972,0.02
50.976,0.02
50.98,0.005
50.984,0.015
50.988,0.02
50.992,0.02
50.996,0.025
51.0,0.03
51.004,0.02
51.008,0.035
51.012,0.035
51.016,0.03
51.02,0.03
51.024,0.02
51.028,0.03
51.032,0.02
51.036,0.035
51.04,0.03
51.044,0.03
51.048,0.035
51.052,0.04
51.056,0.05
51.06,0.06
51.064,0.055
51.068,0.03
51.072,0.035
51.076,0.045
51.08,0.04
51.084,0.035
51.088,0.05
51.092,0.04
51.096,0.055
51.1,0.045
51.104,0.05
51.108,0.06
51.112,0.055
51.116,0.05
51.12,0.04
51.124,0.04
51.128,0.06
51.132,0.055
51.136,0.03
51.14,0.03
51.144,0.06
51.148,0.04
51.152,0.035
51.156,0.055
51.16,0.06
51.164,0.06
51.168,0.045
51.172,0.06
51.176,0.06
51.18,0.06
51.184,0.06
51.188,0.06
51.192,0.06
51.196,0.06
51.2,0.075
51.204,0.065
51.208,0.07
51.212,0.08
51.216,0.08
51.22,0.075
51.224,0.075
51.228,0.07
51.232,0.08
51.236,0.075
51.24,0.07
51.244,0.08
51.248,0.075
51.252,0.09
51.256,0.08
51.26,0.08
51.264,0.085
51.268,0.08
51.272,0.1
51.276,0.085
51.28,0.09
51.284,0.08
51.288,0.1
51.292,0.1
51.296,0.115
51.3,0.11
51.304,0.11
51.308,0.11
51.312,0.105
51.316,0.12
51.32,0.13
51.324,0.12
51.328,0.145
51.332,0.13
51.336,0.14
51.34,0.125
51.344,0.13
51.348,0.12
51.352,0.12
51.356,0.12
51.36,0.09
51.364,0.115
51.368,0.085
51.372,0.08
51.376,0.08
51.38,0.08
51.384,0.07
51.388,0.05
51.392,0.065
51.396,0.06
51.4,0.06
51.404,0.07
51.408,0.06
51.412,0.07
51.416,0.065
51.42,0.06
51.424,0.07
51.428,0.075
51.432,0.07
51.436,0.06
51.44,0.08
51.444,0.075
51.448,0.065
51.452,0.085
51.456,0.13
51.46,0.16
51.464,0.23
51.468,0.355
51.472,0.525
51.476,0.725
51.48,0.85
51.484,0.86
51.488,0.61
51.492,0.255
51.496,-0.1
51.5,-0.285
51.504,-0.36
51.508,-0.285
51.512,-0.19
51.516,-0.1
51.52,-0.04
51.524,-0.0
51.528,0.035
51.532,0.065
51.536,0.085
51.54,0.07
51.544,0.075
51.548,0.09
51.552,0.08
51.556,0.08
51.56,0.09
51.564,0.105
51.568,0.1
51.572,0.1
51.576,0.1
51.58,0.1
51.584,0.11
51.588,0.11
51.592,0.11
51.596,0.11
51.6,0.12
51.604,0.115
51.608,0.115
51.612,0.125
51.616,0.12
51.62,0.115
51.624,0.125
51.628,0.125
51.632,0.11
51.636,0.125
51.64,0.12
51.644,0.145
51.648,0.145
51.652,0.135
51.656,0.165
51.66,0.16
51.664,0.16
51.668,0.16
51.672,0.175
51.676,0.165
51.68,0.18
51.684,0.18
51.688,0.185
51.692,0.2
51.696,0.19
51.7,0.205
51.704,0.205
51.708,0.215
51.712,0.23
51.716,0.225
51.72,0.22
51.724,0.22
51.728,0.24
51.732,0.22
51.736,0.21
51.74,0.21
51.744,0.195
51.748,0.205
51.752,0.205
51.756,0.19
51.76,0.19
51.764,0.16
51.768,0.16
51.772,0.145
51.776,0.12
51.78,0.105
51.784,0.09
51.788,0.075
51.792,0.07
51.796,0.05
51.8,0.04
51.804,0.03
51.808,0.02
51.812,0.01
51.816,0.005
51.82,-0.0
51.824,0.005
51.828,-0.01
51.832,-0.0
51.836,0.005
51.84,-0.005
51.844,-0.0
51.848,-0.0
51.852,-0.0
51.856,-0.0
51.86,-0.0
51.864,0.01
51.868,0.02
51.872,0.015
51.876,0.01
51.88,0.015
51.884,0.02
51.888,0.005
51.892,0.02
51.896,0.03
51.9,0.02
51.904,0.02
51.908,0.035
51.912,0.02
51.916,0.04
51.92,0.02
51.924,0.03
51.928,0.02
51.932,0.04
51.936,0.035
51.94,0.03
51.944,0.03
51.948,0.03
51.952,0.04
51.956,0.03
51.96,0.03
51.964,0.035
51.968,0.055
51.972,0.035
51.976,0.035
51.98,0.04
51.984,0.04
51.988,0.04
51.992,0.04
51.996,0.035
52.0,0.035
52.004,0.035
52.008,0.04
52.012,0.035
52.016,0.04
52.02,0.045
52.024,0.04
52.028,0.055
52.032,0.045
52.036,0.05
52.04,0.04
52.044,0.04
52.048,0.045
52.052,0.05
52.056,0.05
52.06,0.04
52.064,0.045
52.068,0.065
52.072,0.045
52.076,0.05
52.08,0.05
52.084,0.06
52.088,0.06
52.092,0.06
52.096,0.06
52.1,0.065
52.104,0.06
52.108,0.06
52.112,0.065
52.116,0.06
52.12,0.07
52.124,0.06
52.128,0.075
52.132,0.06
52.136,0.08
52.14,0.08
52.144,0.075
52.148,0.085
52.152,0.08
52.156,0.08
52.16,0.08
52.164,0.08
52.168,0.09
52.172,0.105
52.176,0.095
52.18,0.1
52.184,0.105
52.188,0.105
52.192,0.1
52.196,0.125
52.2,0.14
52.204,0.14
52.208,0.15
52.212,0.15
52.216,0.145
52.22,0.13
52.224,0.14
52.228,0.135
52.232,0.125
52.236,0.1
52.24,0.1
52.244,0.1
52.248,0.09
52.252,0.08
52.256,0.085
52.26,0.08
52.264,0.06
52.268,0.08
52.272,0.07
52.276,0.07
52.28,0.07
52.284,0.06
52.288,0.06
52.292,0.06
52.296,0.07
52.3,0.075
52.304,0.06
52.308,0.06
52.312,0.065
52.316,0.075
52.32,0.075
52.324,0.08
52.328,0.065
52.332,0.09
52.336,0.13
52.34,0.18
52.344,0.27
52.348,0.405
52.352,0.61
52.356,0.82
52.36,0.93
52.364,0.86
52.368,0.58
52.372,0.18
52.376,-0.205
52.38,-0.375
52.384,-0.42
52.388,-0.3
52.392,-0.19
52.396,-0.095
52.4,-0.045
52.404,-0.01
52.408,0.035
52.412,0.05
52.416,0.07
52.42,0.07
52.424,0.065
52.428,0.06
52.432,0.075
52.436,0.08
52.44,0.095
52.444,0.1
52.448,0.09
52.452,0.1
52.456,0.1
52.46,0.1
52.464,0.1
52.468,0.105
52.472,0.12
52.476,0.105
52.48,0.115
52.484,0.125
52.488,0.125
52.492,0.115
52.496,0.13
52.5,0.14
52.504,0.13
52.508,0.14
52.512,0.13
52.516,0.14
52.52,0.15
52.524,0.145
52.528,0.145
52.532,0.145
52.536,0.16
52.54,0.155
52.544,0.16
52.548,0.16
52.552,0.17
52.556,0.17
52.56,0.185
52.564,0.195
52.568,0.195
52.572,0.205
52.576,0.215
52.58,0.215
52.584,0.215
52.588,0.225
52.592,0.24
52.596,0.255
52.6,0.24
52.604,0.24
52.608,0.235
52.612,0.235
52.616,0.22
52.62,0.24
52.624,0.22
52.628,0.225
52.632,0.22
52.636,0.205
52.64,0.21
52.644,0.18
52.648,0.155
52.652,0.16
52.656,0.135
52.66,0.105
52.664,0.1
52.668,0.095
52.672,0.07
52.676,0.055
52.68,0.04
52.684,0.03
52.688,0.015
52.692,0.005
52.696,0.005
52.7,0.005
52.704,-0.0
52.708,-0.0
52.712,-0.0
52.716,-0.0
52.72,-0.005
52.724,-0.0
52.728,-0.0
52.732,-0.0
52.736,-0.0
52.74,-0.0
52.744,0.005
52.748,-0.0
52.752,0.015
52.756,0.015
52.76,0.015
52.764,0.005
52.768,0.02
52.772,0.02
52.776,0.015
52.78,0.025
52.784,0.02
52.788,0.02
52.792,0.025
52.796,0.03
52.8,0.03
52.804,0.04
52.808,0.025
52.812,0.04
52.816,0.04
52.82,0.03
52.824,0.05
52.828,0.045
52.832,0.04
52.836,0.045
52.84,0.03
52.844,0.04
52.848,0.05
52.852,0.055
52.856,0.055
52.86,0.04
52.864,0.055
52.868,0.055
52.872,0.035
52.876,0.035
52.88,0.055
52.884,0.04
52.888,0.045
52.892,0.05
52.896,0.055
52.9,0.04
52.904,0.045
52.908,0.06
52.912,0.045
52.916,0.05
52.92,0.04
52.924,0.04
52.928,0.06
52.932,0.055
52.936,0.04
52.94,0.055
52.944,0.06
52.948,0.07
52.952,0.06
52.956,0.06
52.96,0.055
52.964,0.065
52.968,0.06
52.972,0.07
52.976,0.055
52.98,0.07
52.984,0.055
52.988,0.075
52.992,0.075
52.996,0.06
53.0,0.07
53.004,0.075
53.008,0.08
53.012,0.06
53.016,0.08
53.02,0.08
53.024,0.08
53.028,0.09
53.032,0.1
53.036,0.1
53.04,0.105
53.044,0.115
53.048,0.1
53.052,0.135
53.056,0.14
53.06,0.145
53.064,0.155
53.068,0.14
53.072,0.15
53.076,0.14
53.08,0.135
53.084,0.14
53.088,0.125
53.092,0.115
53.096,0.105
53.1,0.105
53.104,0.085
53.108,0.1
53.112,0.095
53.116,0.08
53.12,0.06
53.124,0.07
53.128,0.075
53.132,0.065
53.136,0.06
53.14,0.08
53.144,0.065
53.148,0.07
53.152,0.06
53.156,0.08
53.16,0.08
53.164,0.06
53.168,0.065
53.172,0.075
53.176,0.08
53.18,0.06
53.184,0.075
53.188,0.115
53.192,0.13
53.196,0.2
53.2,0.31
53.204,0.455
53.208,0.665
53.212,0.86
53.216,0.935
53.22,0.81
53.224,0.505
53.228,0.105
53.232,-0.235
53.236,-0.38
53.24,-0.385
53.244,-0.28
53.248,-0.175
53.252,-0.1
53.256,-0.05
53.26,-0.005
53.264,0.02
53.268,0.06
53.272,0.065
53.276,0.065
53.28,0.065
53.284,0.065
53.288,0.075
53.292,0.08
53.296,0.08
53.3,0.08
53.304,0.075
53.308,0.085
53.312,0.1
53.316,0.095
53.32,0.085
53.324,0.115
53.328,0.12
53.332,0.115
53.336,0.12
53.34,0.13
53.344,0.12
53.348,0.125
53.352,0.12
53.356,0.13
53.36,0.13
53.364,0.14
53.368,0.15
53.372,0.14
53.376,0.15
53.38,0.155
53.384,0.155
53.388,0.165
53.392,0.15
53.396,0.18
53.4,0.175
53.404,0.165
53.408,0.19
53.412,0.19
53.416,0.2
53.42,0.205
53.424,0.2
53.428,0.22
53.432,0.2
53.436,0.23
53.44,0.225
53.444,0.225
53.448,0.22
53.452,0.245
53.456,0.23
53.46,0.235
53.464,0.26
53.468,0.23
53.472,0.22
53.476,0.24
53.48,0.24
53.484,0.22
53.488,0.23
53.492,0.215
53.496,0.195
53.5,0.19
53.504,0.16
53.508,0.16
53.512,0.125
53.516,0.135
53.52,0.085
53.524,0.085
53.528,0.07
53.532,0.055
53.536,0.03
53.54,0.025
53.544,0.03
53.548,0.01
53.552,0.015
53.556,-0.0
53.56,-0.015
53.564,-0.0
53.568,0.005
53.572,-0.01
53.576,-0.01
53.58,-0.01
53.584,-0.02
53.588,-0.005
53.592,-0.0
53.596,-0.0
53.6,-0.005
53.604,-0.0
53.608,0.005
53.612,0.015
53.616,0.01
53.62,0.005
53.624,0.02
53.628,0.015
53.632,0.015
53.636,0.02
53.64,0.03
53.644,0.035
53.648,0.03
53.652,0.035
53.656,0.04
53.66,0.035
53.664,0.035
53.668,0.04
53.672,0.04
53.676,0.04
53.68,0.04
53.684,0.04
53.688,0.04
53.692,0.045
53.696,0.055
53.7,0.06
53.704,0.055
53.708,0.05
53.712,0.06
53.716,0.055
53.72,0.045
53.724,0.05
53.728,0.05
53.732,0.055
53.736,0.055
53.74,0.06
53.744,0.06
53.748,0.045
53.752,0.06
53.756,0.06
53.76,0.04
53.764,0.06
53.768,0.065
53.772,0.05
53.776,0.055
53.78,0.065
53.784,0.055
53.788,0.065
53.792,0.06
53.796,0.06
53.8,0.06
53.804,0.06
53.808,0.06
53.812,0.05
53.816,0.06
53.82,0.07
53.824,0.055
53.828,0.07
53.832,0.06
53.836,0.05
53.84,0.065
53.844,0.06
53.848,0.06
53.852,0.065
53.856,0.075
53.86,0.08
53.864,0.065
53.868,0.06
53.872,0.065
53.876,0.09
53.88,0.07
53.884,0.1
53.888,0.095
53.892,0.09
53.896,0.11
53.9,0.1
53.904,0.1
53.908,0.125
53.912,0.125
53.916,0.135
53.92,0.14
53.924,0.135
53.928,0.125
53.932,0.13
53.936,0.115
53.94,0.13
53.944,0.105
53.948,0.115
53.952,0.1
53.956,0.1
53.96,0.095
53.964,0.085
53.968,0.09
53.972,0.075
53.976,0.075
53.98,0.06
53.984,0.06
53.988,0.07
53.992,0.085
53.996,0.075
54.0,0.08
54.004,0.07
54.008,0.08
54.012,0.08
54.016,0.07
54.02,0.07
54.024,0.09
54.028,0.08
54.032,0.07
54.036,0.07
54.04,0.08
54.044,0.12
54.048,0.14
54.052,0.205
54.056,0.305
54.06,0.46
54.064,0.67
54.068,0.86
54.072,0.95
54.076,0.8
54.08,0.5
54.084,0.1
54.088,-0.255
54.092,-0.37
54.096,-0.38
54.1,-0.265
54.104,-0.16
54.108,-0.1
54.112,-0.035
54.116,-0.0
54.12,0.045
54.124,0.08
54.128,0.08
54.132,0.06
54.136,0.065
54.14,0.07
54.144,0.08
54.148,0.075
54.152,0.085
54.156,0.085
54.16,0.08
54.164,0.085
54.168,0.09
54.172,0.08
54.176,0.1
54.18,0.105
54.184,0.1
54.188,0.105
54.192,0.1
54.196,0.12
54.2,0.12
54.204,0.115
54.208,0.12
54.212,0.125
54.216,0.13
54.22,0.125
54.224,0.13
54.228,0.14
54.232,0.16
54.236,0.145
54.24,0.15
54.244,0.15
54.248,0.16
54.252,0.165
54.256,0.16
54.26,0.175
54.264,0.175
54.268,0.19
54.272,0.195
54.276,0.195
54.28,0.22
54.284,0.21
54.288,0.21
54.292,0.22
54.296,0.24
54.3,0.24
54.304,0.24
54.308,0.24
54.312,0.24
54.316,0.24
54.32,0.25
54.324,0.24
54.328,0.255
54.332,0.235
54.336,0.22
54.34,0.23
54.344,0.22
54.348,0.21
54.352,0.195
54.356,0.185
54.36,0.18
54.364,0.155
54.368,0.135
54.372,0.13
54.376,0.12
54.38,0.08
54.384,0.08
54.388,0.06
54.392,0.05
54.396,0.04
54.4,0.025
54.404,0.01
54.408,0.01
54.412,0.005
54.416,-0.005
54.42,-0.0
54.424,-0.0
54.428,-0.0
54.432,-0.0
54.436,-0.0
54.44,-0.005
54.444,-0.0
54.448,0.01
54.452,0.015
54.456,-0.005
54.46,-0.0
54.464,0.005
54.468,0.01
54.472,0.015
54.476,-0.0
54.48,0.01
54.484,0.005
54.488,-0.0
54.492,0.015
54.496,0.02
54.5,0.025
54.504,0.02
54.508,0.03
54.512,0.025
54.516,0.03
54.52,0.025
54.524,0.035
54.528,0.035
54.532,0.03
54.536,0.04
54.54,0.04
54.544,0.045
54.548,0.04
54.552,0.045
54.556,0.04
54.56,0.055
54.564,0.05
54.568,0.045
54.572,0.055
54.576,0.05
54.58,0.05
54.584,0.05
54.588,0.04
54.592,0.055
54.596,0.055
54.6,0.055
54.604,0.045
54.608,0.06
54.612,0.06
54.616,0.06
54.62,0.06
54.624,0.04
54.628,0.06
54.632,0.07
54.636,0.075
54.64,0.065
54.644,0.06
54.648,0.06
54.652,0.07
54.656,0.06
54.66,0.055
54.664,0.06
54.668,0.07
54.672,0.045
54.676,0.06
54.68,0.065
54.684,0.065
54.688,0.075
54.692,0.065
54.696,0.075
54.7,0.06
54.704,0.08
54.708,0.08
54.712,0.065
54.716,0.06
54.72,0.05
54.724,0.075
54.728,0.07
54.732,0.065
54.736,0.075
54.74,0.08
54.744,0.08
54.748,0.09
54.752,0.09
54.756,0.1
54.76,0.095
54.764,0.1
54.768,0.1
54.772,0.12
54.776,0.13
54.78,0.135
54.784,0.14
54.788,0.135
54.792,0.125
54.796,0.12
54.8,0.115
54.804,0.125
54.808,0.105
54.812,0.1
54.816,0.1
54.82,0.09
54.824,0.095
54.828,0.08
54.832,0.09
54.836,0.07
54.84,0.075
54.844,0.06
54.848,0.065
54.852,0.08
54.856,0.07
54.86,0.065
54.864,0.06
54.868,0.075
54.872,0.08
54.876,0.08
54.88,0.08
54.884,0.085
54.888,0.08
54.892,0.09
54.896,0.09
54.9,0.08
54.904,0.08
54.908,0.13
54.912,0.15
54.916,0.24
54.92,0.34
54.924,0.54
54.928,0.74
54.932,0.9
54.936,0.945
54.94,0.725
54.944,0.37
54.948,-0.01
54.952,-0.27
54.956,-0.38
54.96,-0.35
54.964,-0.23
54.968,-0.15
54.972,-0.08
54.976,-0.03
54.98,0.02
54.984,0.04
54.988,0.055
54.992,0.07
54.996,0.065
55.0,0.075
55.004,0.055
55.008,0.09
55.012,0.08
55.016,0.085
55.02,0.08
55.024,0.1
55.028,0.085
55.032,0.1
55.036,0.1
55.04,0.1
55.044,0.11
55.048,0.095
55.052,0.12
55.056,0.1
55.06,0.125
55.064,0.105
55.068,0.11
55.072,0.12
55.076,0.12
55.08,0.135
55.084,0.125
55.088,0.13
55.092,0.14
55.096,0.13
55.1,0.14
55.104,0.16
55.108,0.145
55.112,0.16
55.116,0.17
55.12,0.16
55.124,0.16
55.128,0.185
55.132,0.195
55.136,0.2
55.14,0.195
55.144,0.2
55.148,0.21
55.152,0.225
55.156,0.23
55.16,0.235
55.164,0.23
55.168,0.245
55.172,0.24
55.176,0.24
55.18,0.235
55.184,0.24
55.188,0.245
55.192,0.24
55.196,0.24
55.2,0.22
55.204,0.22
55.208,0.21
55.212,0.21
55.216,0.2
55.22,0.205
55.224,0.16
55.228,0.15
55.232,0.14
55.236,0.115
55.24,0.11
55.244,0.085
55.248,0.08
55.252,0.06
55.256,0.05
55.26,0.03
55.264,0.035
55.268,0.03
55.272,0.015
55.276,0.01
55.28,-0.0
55.284,0.015
55.288,-0.0
55.292,-0.0
55.296,0.005
55.3,-0.0
55.304,-0.0
55.308,0.005
55.312,0.01
55.316,-0.0
55.32,-0.0
55.324,0.005
55.328,0.02
55.332,-0.0
55.336,0.015
55.34,0.015
55.344,-0.0
55.348,-0.0
55.352,0.015
55.356,0.015
55.36,0.02
55.364,0.03
55.368,0.025
55.372,0.02
55.376,0.02
55.38,0.03
55.384,0.03
55.388,0.04
55.392,0.03
55.396,0.045
55.4,0.04
55.404,0.035
55.408,0.05
55.412,0.05
55.416,0.045
55.42,0.04
55.424,0.045
55.428,0.04
55.432,0.045
55.436,0.04
55.44,0.045
55.444,0.045
55.448,0.045
55.452,0.05
55.456,0.045
55.46,0.055
55.464,0.055
55.468,0.065
55.472,0.06
55.476,0.055
55.48,0.07
55.484,0.06
55.488,0.06
55.492,0.075
55.496,0.06
55.5,0.06
55.504,0.065
55.508,0.065
55.512,0.07
55.516,0.075
55.52,0.065
55.524,0.08
55.528,0.07
55.532,0.06
55.536,0.08
55.54,0.07
55.544,0.075
55.548,0.065
55.552,0.075
55.556,0.075
55.56,0.08
55.564,0.08
55.568,0.085
55.572,0.07
55.576,0.075
55.58,0.08
55.584,0.07
55.588,0.075
55.592,0.07
55.596,0.085
55.6,0.08
55.604,0.095
55.608,0.075
55.612,0.095
55.616,0.07
55.62,0.1
55.624,0.08
55.628,0.11
55.632,0.1
55.636,0.1
55.64,0.1
55.644,0.105
55.648,0.105
55.652,0.125
55.656,0.13
55.66,0.13
55.664,0.12
55.668,0.125
55.672,0.125
55.676,0.11
55.68,0.12
55.684,0.115
55.688,0.1
55.692,0.1
55.696,0.1
55.7,0.08
55.704,0.09
55.708,0.08
55.712,0.085
55.716,0.06
55.72,0.06
55.724,0.065
55.728,0.07
55.732,0.08
55.736,0.065
55.74,0.06
55.744,0.06
55.748,0.07
55.752,0.08
55.756,0.08
55.76,0.08
55.764,0.085
55.768,0.07
55.772,0.08
55.776,0.07
55.78,0.08
55.784,0.115
55.788,0.145
55.792,0.22
55.796,0.31
55.8,0.485
55.804,0.67
55.808,0.845
55.812,0.92
55.816,0.74
55.82,0.465
55.824,0.085
55.828,-0.23
55.832,-0.345
55.836,-0.335
55.84,-0.22
55.844,-0.13
55.848,-0.055
55.852,-0.02
55.856,0.03
55.86,0.06
55.864,0.06
55.868,0.08
55.872,0.07
55.876,0.08
55.88,0.08
55.884,0.065
55.888,0.07
55.892,0.08
55.896,0.08
55.9,0.09
55.904,0.08
55.908,0.105
55.912,0.1
55.916,0.105
55.92,0.105
55.924,0.1
55.928,0.12
55.932,0.11
55.936,0.1
55.94,0.125
55.944,0.1
55.948,0.125
55.952,0.11
55.956,0.125
55.96,0.115
55.964,0.135
55.968,0.12
55.972,0.135
55.976,0.14
55.98,0.135
55.984,0.14
55.988,0.135
55.992,0.16
55.996,0.165
56.0,0.155
56.004,0.165
56.008,0.175
56.012,0.175
56.016,0.185
56.02,0.18
56.024,0.205
56.028,0.2
56.032,0.205
56.036,0.21
56.04,0.205
56.044,0.21
56.048,0.22
56.052,0.225
56.056,0.235
56.06,0.24
56.064,0.225
56.068,0.215
56.072,0.21
56.076,0.22
56.08,0.205
56.084,0.225
56.088,0.205
56.092,0.175
56.096,0.175
56.1,0.18
56.104,0.165
56.108,0.135
56.112,0.12
56.116,0.1
56.12,0.1
56.124,0.07
56.128,0.08
56.132,0.045
56.136,0.06
56.14,0.035
56.144,0.03
56.148,0.03
56.152,0.02
56.156,0.02
56.16,0.015
56.164,0.025
56.168,-0.0
56.172,0.02
56.176,0.005
56.18,0.025
56.184,0.005
56.188,0.005
56.192,0.02
56.196,0.005
56.2,-0.0
56.204,0.03
56.208,0.005
56.212,0.02
56.216,0.02
56.22,0.025
56.224,0.005
56.228,0.02
56.232,0.02
56.236,0.02
56.24,0.015
56.244,0.02
56.248,0.015
56.252,0.035
56.256,0.02
56.26,0.025
56.264,0.025
56.268,0.045
56.272,0.03
56.276,0.045
56.28,0.04
56.284,0.03
56.288,0.045
56.292,0.035
56.296,0.045
56.3,0.05
56.304,0.03
56.308,0.06
56.312,0.04
56.316,0.035
56.32,0.04
56.324,0.05
56.328,0.05
56.332,0.045
56.336,0.06
56.34,0.05
56.344,0.045
56.348,0.055
56.352,0.04
56.356,0.07
56.36,0.04
56.364,0.06
56.368,0.055
56.372,0.06
56.376,0.065
56.38,0.05
56.384,0.065
56.388,0.06
56.392,0.06
56.396,0.06
56.4,0.06
56.404,0.06
56.408,0.08
56.412,0.06
56.416,0.06
56.42,0.075
56.424,0.07
56.428,0.07
56.432,0.075
56.436,0.08
56.44,0.06
56.444,0.08
56.448,0.08
56.452,0.07
56.456,0.07
56.46,0.08
56.464,0.09
56.468,0.085
56.472,0.075
56.476,0.075
56.48,0.06
56.484,0.075
56.488,0.075
56.492,0.095
56.496,0.08
56.5,0.1
56.504,0.08
56.508,0.095
56.512,0.1
56.516,0.1
56.52,0.1
56.524,0.11
56.528,0.095
56.532,0.1
56.536,0.115
56.54,0.12
56.544,0.14
56.548,0.13
56.552,0.12
56.556,0.12
56.56,0.11
56.564,0.11
56.568,0.115
56.572,0.105
56.576,0.085
56.58,0.08
56.584,0.08
56.588,0.08
56.592,0.08
56.596,0.08
56.6,0.06
56.604,0.055
56.608,0.045
56.612,0.06
56.616,0.065
56.62,0.06
56.624,0.045
56.628,0.07
56.632,0.065
56.636,0.065
56.64,0.065
56.644,0.06
56.648,0.07
56.652,0.07
56.656,0.08
56.66,0.08
56.664,0.08
56.668,0.065
56.672,0.11
56.676,0.135
56.68,0.205
56.684,0.305
56.688,0.47
56.692,0.675
56.696,0.86
56.7,0.92
56.704,0.745
56.708,0.44
56.712,0.065
56.716,-0.25
56.72,-0.36
56.724,-0.34
56.728,-0.225
56.732,-0.12
56.736,-0.06
56.74,-0.015
56.744,0.02
56.748,0.055
56.752,0.075
56.756,0.075
56.76,0.08
56.764,0.07
56.768,0.075
56.772,0.08
56.776,0.08
56.78,0.08
56.784,0.09
56.788,0.075
56.792,0.08
56.796,0.09
56.8,0.08
56.804,0.1
56.808,0.1
56.812,0.11
56.816,0.095
56.82,0.105
56.824,0.11
56.828,0.105
56.832,0.11
56.836,0.1
56.84,0.115
56.844,0.12
56.848,0.13
56.852,0.13
56.856,0.125
56.86,0.135
56.864,0.12
56.868,0.145
56.872,0.14
56.876,0.145
56.88,0.16
56.884,0.16
56.888,0.155
56.892,0.16
56.896,0.18
56.9,0.175
56.904,0.18
56.908,0.195
56.912,0.2
56.916,0.205
56.92,0.2
56.924,0.195
56.928,0.205
56.932,0.215
56.936,0.23
56.94,0.23
56.944,0.23
56.948,0.23
56.952,0.23
56.956,0.23
56.96,0.22
56.964,0.22
56.968,0.225
56.972,0.22
56.976,0.215
56.98,0.195
56.984,0.175
56.988,0.18
56.992,0.16
56.996,0.135
57.0,0.12
57.004,0.115
57.008,0.085
57.012,0.075
57.016,0.055
57.02,0.04
57.024,0.035
57.028,0.02
57.032,0.02
57.036,0.015
57.04,0.01
57.044,-0.0
57.048,-0.0
57.052,-0.0
57.056,-0.0
57.06,0.005
57.064,-0.0
57.068,-0.0
57.072,-0.0
57.076,0.005
57.08,0.01
57.084,0.005
57.088,0.01
57.092,0.005
57.096,0.015
57.1,0.02
57.104,0.015
57.108,-0.0
57.112,0.02
57.116,0.02
57.12,0.02
57.124,0.03
57.128,0.02
57.132,0.02
57.136,0.025
57.14,0.01
57.144,0.03
57.148,0.04
57.152,0.02
57.156,0.03
57.16,0.03
57.164,0.02
57.168,0.05
57.172,0.04
57.176,0.045
57.18,0.045
57.184,0.04
57.188,0.045
57.192,0.045
57.196,0.03
57.2,0.04
57.204,0.04
57.208,0.02
57.212,0.045
57.216,0.02
57.22,0.04
57.224,0.025
57.228,0.035
57.232,0.035
57.236,0.04
57.24,0.05
57.244,0.04
57.248,0.04
57.252,0.06
57.256,0.05
57.26,0.06
57.264,0.05
57.268,0.045
57.272,0.05
57.276,0.05
57.28,0.06
57.284,0.06
57.288,0.07
57.292,0.06
57.296,0.06
57.3,0.065
57.304,0.055
57.308,0.08
57.312,0.08
57.316,0.075
57.32,0.065
57.324,0.08
57.328,0.06
57.332,0.065
57.336,0.08
57.34,0.075
57.344,0.075
57.348,0.07
57.352,0.09
57.356,0.07
57.36,0.095
57.364,0.085
57.368,0.1
57.372,0.075
57.376,0.085
57.38,0.08
57.384,0.095
57.388,0.08
57.392,0.08
57.396,0.08
57.4,0.08
57.404,0.085
57.408,0.08
57.412,0.085
57.416,0.09
57.42,0.095
57.424,0.095
57.428,0.1
57.432,0.075
57.436,0.09
57.44,0.08
57.444,0.095
57.448,0.085
57.452,0.105
57.456,0.095
57.46,0.1
57.464,0.11
57.468,0.1
57.472,0.115
57.476,0.12
57.48,0.135
57.484,0.14
57.488,0.13
57.492,0.14
57.496,0.155
57.5,0.14
57.504,0.125
57.508,0.12
57.512,0.125
57.516,0.13
57.52,0.1
57.524,0.115
57.528,0.1
57.532,0.09
57.536,0.1
57.54,0.08
57.544,0.085
57.548,0.07
57.552,0.07
57.556,0.05
57.56,0.07
57.564,0.06
57.568,0.07
57.572,0.075
57.576,0.07
57.58,0.095
57.584,0.09
57.588,0.08
57.592,0.09
57.596,0.09
57.6,0.095
57.604,0.1
57.608,0.085
57.612,0.085
57.616,0.11
57.62,0.145
57.624,0.18
57.628,0.245
57.632,0.375
57.636,0.6
57.64,0.805
57.644,0.94
57.648,0.94
57.652,0.69
57.656,0.29
57.66,-0.105
57.664,-0.295
57.668,-0.37
57.672,-0.3
57.676,-0.18
57.68,-0.105
57.684,-0.05
57.688,-0.005
57.692,0.035
57.696,0.07
57.7,0.08
57.704,0.07
57.708,0.07
57.712,0.07
57.716,0.085
57.72,0.075
57.724,0.1
57.728,0.07
57.732,0.09
57.736,0.08
57.74,0.095
57.744,0.085
57.748,0.085
57.752,0.1
57.756,0.095
57.76,0.105
57.764,0.1
57.768,0.12
57.772,0.1
57.776,0.12
57.78,0.12
57.784,0.12
57.788,0.125
57.792,0.135
57.796,0.135
57.8,0.12
57.804,0.125
57.808,0.135
57.812,0.135
57.816,0.145
57.82,0.15
57.824,0.145
57.828,0.16
57.832,0.16
57.836,0.17
57.84,0.16
57.844,0.17
57.848,0.185
57.852,0.2
57.856,0.205
57.86,0.21
57.864,0.205
57.868,0.21
57.872,0.225
57.876,0.235
57.88,0.23
57.884,0.22
57.888,0.235
57.892,0.245
57.896,0.245
57.9,0.24
57.904,0.23
57.908,0.24
57.912,0.24
57.916,0.24
57.92,0.23
57.924,0.21
57.928,0.2
57.932,0.185
57.936,0.19
57.94,0.16
57.944,0.15
57.948,0.145
57.952,0.125
57.956,0.1
57.96,0.085
57.964,0.065
57.968,0.065
57.972,0.04
57.976,0.04
57.98,0.02
57.984,0.03
57.988,0.015
57.992,0.005
57.996,-0.0
58.0,0.005
58.004,-0.015
58.008,-0.0
58.012,0.005
58.016,-0.0
58.02,-0.005
58.024,0.005
58.028,0.01
58.032,-0.0
58.036,-0.0
58.04,0.005
58.044,0.015
58.048,0.005
58.052,0.025
58.056,0.025
58.06,0.015
58.064,0.02
58.068,0.035
58.072,0.035
58.076,0.02
58.08,0.03
58.084,0.02
58.088,0.02
58.092,0.035
58.096,0.02
58.1,0.03
58.104,0.03
58.108,0.03
58.112,0.025
58.116,0.02
58.12,0.03
58.124,0.03
58.128,0.045
58.132,0.035
58.136,0.045
58.14,0.035
58.144,0.055
58.148,0.04
58.152,0.045
58.156,0.05
58.16,0.04
58.164,0.06
58.168,0.045
58.172,0.05
58.176,0.065
58.18,0.04
58.184,0.055
58.188,0.055
58.192,0.055
58.196,0.05
58.2,0.055
58.204,0.055
58.208,0.045
58.212,0.055
58.216,0.055
58.22,0.07
58.224,0.06
58.228,0.04
58.232,0.065
58.236,0.065
58.24,0.05
58.244,0.065
58.248,0.06
58.252,0.085
58.256,0.08
58.26,0.085
58.264,0.06
58.268,0.08
58.272,0.065
58.276,0.095
58.28,0.075
58.284,0.065
58.288,0.08
58.292,0.065
58.296,0.095
58.3,0.08
58.304,0.09
58.308,0.085
58.312,0.095
58.316,0.075
58.32,0.085
58.324,0.08
58.328,0.095
58.332,0.085
58.336,0.09
58.34,0.07
58.344,0.065
58.348,0.075
58.352,0.07
58.356,0.065
58.36,0.08
58.364,0.08
58.368,0.06
58.372,0.085
58.376,0.08
58.38,0.08
58.384,0.065
58.388,0.085
58.392,0.075
58.396,0.08
58.4,0.085
58.404,0.085
58.408,0.08
58.412,0.09
58.416,0.095
58.42,0.08
58.424,0.07
58.428,0.08
58.432,0.075
58.436,0.08
58.44,0.085
58.444,0.085
58.448,0.1
58.452,0.105
58.456,0.11
58.46,0.105
58.464,0.125
58.468,0.11
58.472,0.12
58.476,0.125
58.48,0.135
58.484,0.155
58.488,0.14
58.492,0.145
58.496,0.16
58.5,0.155
58.504,0.14
58.508,0.15
58.512,0.14
58.516,0.14
58.52,0.14
58.524,0.11
58.528,0.125
58.532,0.1
58.536,0.1
58.54,0.105
58.544,0.1
58.548,0.075
58.552,0.085
58.556,0.075
58.56,0.09
58.564,0.08
58.568,0.085
58.572,0.06
58.576,0.1
58.58,0.085
58.584,0.1
58.588,0.085
58.592,0.1
58.596,0.08
58.6,0.09
58.604,0.08
58.608,0.095
58.612,0.065
58.616,0.08
58.62,0.11
58.624,0.145
58.628,0.2
58.632,0.305
58.636,0.475
58.64,0.675
58.644,0.88
58.648,0.96
58.652,0.81
58.656,0.49
58.66,0.11
58.664,-0.235
58.668,-0.355
58.672,-0.375
58.676,-0.265
58.68,-0.17
58.684,-0.09
58.688,-0.04
58.692,0.005
58.696,0.03
58.7,0.05
58.704,0.06
58.708,0.05
58.712,0.075
58.716,0.05
58.72,0.06
58.724,0.06
58.728,0.07
58.732,0.085
58.736,0.08
58.74,0.1
58.744,0.085
58.748,0.095
58.752,0.085
58.756,0.09
58.76,0.11
58.764,0.1
58.768,0.11
58.772,0.11
58.776,0.12
58.78,0.12
58.784,0.12
58.788,0.125
58.792,0.12
58.796,0.125
58.8,0.13
58.804,0.125
58.808,0.135
58.812,0.15
58.816,0.145
58.82,0.155
58.824,0.16
58.828,0.165
58.832,0.17
58.836,0.18
58.84,0.165
58.844,0.185
58.848,0.185
58.852,0.2
58.856,0.2
58.86,0.2
58.864,0.22
58.868,0.225
58.872,0.225
58.876,0.225
58.88,0.23
58.884,0.23
58.888,0.22
58.892,0.24
58.896,0.245
58.9,0.24
58.904,0.23
58.908,0.215
58.912,0.205
58.916,0.2
58.92,0.215
58.924,0.215
58.928,0.21
58.932,0.2
58.936,0.17
58.94,0.16
58.944,0.155
58.948,0.13
58.952,0.115
58.956,0.08
58.96,0.075
58.964,0.055
58.968,0.06
58.972,0.025
58.976,0.03
58.98,0.025
58.984,0.02
58.988,0.01
58.992,-0.005
58.996,-0.005
59.0,-0.005
59.004,-0.0
59.008,-0.01
59.012,-0.02
59.016,-0.0
59.02,-0.0
59.024,-0.01
59.028,-0.005
59.032,-0.0
59.036,0.005
59.04,-0.0
59.044,-0.005
59.048,0.015
59.052,0.015
59.056,0.015
59.06,0.015
59.064,0.015
59.068,0.02
59.072,0.005
59.076,0.025
59.08,0.02
59.084,0.02
59.088,0.02
59.092,0.03
59.096,0.035
59.1,0.04
59.104,0.03
59.108,0.035
59.112,0.05
59.116,0.035
59.12,0.055
59.124,0.05
59.128,0.04
59.132,0.055
59.136,0.055
59.14,0.06
59.144,0.045
59.148,0.05
59.152,0.055
59.156,0.05
59.16,0.06
59.164,0.045
59.168,0.04
59.172,0.055
59.176,0.05
59.18,0.055
59.184,0.07
59.188,0.04
59.192,0.05
59.196,0.065
59.2,0.055
59.204,0.07
59.208,0.06
59.212,0.06
59.216,0.055
59.22,0.06
59.224,0.055
59.228,0.06
59.232,0.06
59.236,0.06
59.24,0.065
59.244,0.05
59.248,0.07
59.252,0.065
59.256,0.045
59.26,0.06
59.264,0.045
59.268,0.06
59.272,0.06
59.276,0.06
59.28,0.06
59.284,0.05
59.288,0.06
59.292,0.05
59.296,0.07
59.3,0.07
59.304,0.07
59.308,0.065
59.312,0.06
59.316,0.07
59.32,0.06
59.324,0.07
59.328,0.06
59.332,0.065
59.336,0.07
59.34,0.075
59.344,0.06
59.348,0.065
59.352,0.08
59.356,0.065
59.36,0.06
59.364,0.07
59.368,0.07
59.372,0.08
59.376,0.065
59.38,0.075
59.384,0.08
59.388,0.08
59.392,0.08
59.396,0.08
59.4,0.09
59.404,0.08
59.408,0.09
59.412,0.09
59.416,0.095
59.42,0.085
59.424,0.09
59.428,0.105
59.432,0.09
59.436,0.1
59.44,0.09
59.444,0.1
59.448,0.095
59.452,0.11
59.456,0.125
59.46,0.135
59.464,0.135
59.468,0.14
59.472,0.14
59.476,0.135
59.48,0.145
59.484,0.16
59.488,0.15
59.492,0.16
59.496,0.175
59.5,0.15
59.504,0.165
59.508,0.15
59.512,0.13
59.516,0.125
59.52,0.105
59.524,0.1
59.528,0.12
59.532,0.11
59.536,0.1
59.54,0.07
59.544,0.075
59.548,0.06
59.552,0.075
59.556,0.075
59.56,0.07
59.564,0.055
59.568,0.08
59.572,0.075
59.576,0.075
59.58,0.07
59.584,0.08
59.588,0.07
59.592,0.07
59.596,0.065
59.6,0.07
59.604,0.075
59.608,0.06
59.612,0.11
59.616,0.125
59.62,0.18
59.624,0.3
59.628,0.445
59.632,0.655
59.636,0.83
59.64,0.93
59.644,0.8
59.648,0.52
59.652,0.14
59.656,-0.215
59.66,-0.36
59.664,-0.375
59.668,-0.26
59.672,-0.16
59.676,-0.08
59.68,-0.04
59.684,-0.0
59.688,0.03
59.692,0.06
59.696,0.06
59.7,0.08
59.704,0.065
59.708,0.07
59.712,0.08
59.716,0.075
59.72,0.085
59.724,0.08
59.728,0.09
59.732,0.095
59.736,0.11
59.74,0.085
59.744,0.12
59.748,0.105
59.752,0.12
59.756,0.105
59.76,0.125
59.764,0.12
59.768,0.12
59.772,0.125
59.776,0.1
59.78,0.14
59.784,0.13
59.788,0.14
59.792,0.14
59.796,0.12
59.8,0.14
59.804,0.145
59.808,0.15
59.812,0.16
59.816,0.16
59.82,0.16
59.824,0.16
59.828,0.16
59.832,0.175
59.836,0.18
59.84,0.19
59.844,0.185
59.848,0.19
59.852,0.205
59.856,0.2
59.86,0.225
59.864,0.22
59.868,0.225
59.872,0.22
59.876,0.22
59.88,0.22
59.884,0.24
59.888,0.22
59.892,0.24
59.896,0.23
59.9,0.225
59.904,0.21
59.908,0.205
59.912,0.21
59.916,0.2
59.92,0.2
59.924,0.19
59.928,0.16
59.932,0.14
59.936,0.15
59.94,0.125
59.944,0.105
59.948,0.1
59.952,0.06
59.956,0.06
59.96,0.055
59.964,0.04
59.968,0.04
59.972,0.015
59.976,0.015
59.98,-0.0
59.984,-0.0
59.988,-0.0
59.992,-0.0
59.996,-0.0
